timestamp,orientation.x,orientation.y,orientation.z,ak0991x_magnetometer.x,ak0991x_magnetometer.y,ak0991x_magnetometer.z,linear_acceleration.x,linear_acceleration.y,linear_acceleration.z,icm4x6xx_accelerometer.x,icm4x6xx_accelerometer.y,icm4x6xx_accelerometer.z,icm4x6xx_gyroscope.x,icm4x6xx_gyroscope.y,icm4x6xx_gyroscope.z,GPS.lat,GPS.long,GPS.alt
1649236067217,291.0,10.125,-79.21875,-8.887501,9.637501,54.54375,0.8891077,0.7611216,-1.8673131,-9.582792,0.997185,-0.7823054,-0.24021004,-0.35112745,0.7561823,13.86043927,100.51166235,-13.10211181640625
1649236067320,291.0,10.125,-79.21875,-8.0625,8.606251,53.943752,-1.3727627,0.06065941,-0.679104,-10.080787,-0.34955344,0.2621651,0.077229396,-0.4789554,-1.0216917,13.86043927,100.51166235,-13.10211181640625
1649236067423,291.0,10.125,-79.21875,-5.9625,7.3500004,55.031254,0.30817795,-0.4591714,-0.42018068,-8.217499,-0.7182605,0.94211835,-5.326165E-4,0.41264465,0.8584447,13.86043927,100.51166235,-13.10211181640625
1649236067526,285.29688,5.25,-82.71875,-8.34375,8.3625,54.412502,-0.92504597,-1.2678709,-1.392884,-9.664195,-1.1731589,-1.2856863,-0.6151721,1.3553759,0.06378083,13.86043927,100.51166235,-13.10211181640625
1649236067629,286.875,8.15625,-78.75,-14.26875,4.425,54.075,-3.6419096,0.18252046,-0.11536008,-14.000094,0.54647654,-0.7966706,-0.34140718,-0.26058263,-0.0011983871,13.86043927,100.51166235,-13.10211181640625
1649236067737,284.48438,6.296875,-78.484375,-13.275001,3.6750002,53.8875,-1.5711985,2.8127759,-1.4631587,-11.249755,2.5779567,-0.777517,0.3062545,-1.3973194,-0.9311468,13.86043927,100.51166235,-13.10211181640625
1649236067836,280.90625,175.03125,-85.03125,-3.7125,3.0937502,56.60625,5.528453,-0.5122595,0.013588905,-3.6182373,-1.2641385,2.4516625,-0.3808208,-0.49919483,-0.5082493,13.86043927,100.51166235,-13.10211181640625
1649236067938,277.73438,175.79688,-85.28125,-1.1625,3.1125002,57.525,1.9471855,-1.422869,-0.16012526,-8.001422,-1.7292122,2.0679917,-0.30199355,0.9484568,-0.16204858,13.86043927,100.51166235,-13.10211181640625
1649236068041,281.65625,8.03125,-80.25,-4.93125,3.4125001,56.41875,-0.4708166,-1.7895906,0.03169179,-10.00896,-2.4193408,1.0953473,-0.1933398,0.26670772,0.37695932,13.86043927,100.51166235,-13.10211181640625
1649236068149,280.76562,8.15625,-73.625,-5.775,1.85625,58.18125,-0.65040684,1.1483195,0.28369808,-10.109517,1.0115502,1.5747862,0.16351327,0.0014646954,0.24273998,13.86043927,100.51166235,-13.10211181640625
1649236068250,282.92188,10.9375,-73.875,-6.2812505,2.25,57.375004,-0.074445724,0.2896968,-0.42146444,-9.520543,0.3645172,0.7074866,-0.29240647,0.34127402,0.45472136,13.86043927,100.51166235,-13.10211181640625
1649236068356,281.0625,10.015625,-77.0625,-7.3875003,0.65625,57.825,0.5973444,0.75755423,-0.030628264,-8.907029,1.5191209,1.1959038,-0.1390129,-0.11251524,0.53248334,13.86043927,100.51166235,-13.10211181640625
1649236068460,279.20312,7.859375,-77.546875,-7.5937505,0.58125,58.406254,-0.1477089,0.68407017,1.4285114,-9.865308,1.4377182,2.211644,0.17842653,0.36151347,0.028628137,13.86043927,100.51166235,-13.10211181640625
1649236068560,277.20312,5.9375,-80.828125,-9.075001,0.84375006,58.443752,0.014953613,-0.47906065,-0.2022903,-9.865308,0.7667431,0.58777654,0.119838715,0.14314069,-0.025698747,13.86043927,100.51166235,-13.10211181640625
1649236068671,273.5625,3.03125,-81.421875,-8.6625,2.53125,58.0125,2.3384147,0.06945169,-0.9972294,-7.2544312,1.2509704,0.060453594,-0.21997061,-0.19453818,-0.42196542,13.86043927,100.51166235,-13.10211181640625
1649236068770,272.64062,1.859375,-83.4375,-7.5375004,1.0125,58.0875,-0.19620228,0.27356172,0.9624454,-10.21965,0.57041854,2.0440497,0.24340574,-0.83900416,0.038215235,13.86043927,100.51166235,-13.10211181640625
1649236068875,272.9375,0.6875,-84.140625,-6.8437505,1.66875,58.312504,-0.71861935,0.28869396,-1.0252532,-10.075998,1.246182,0.22864626,-0.0037283157,-0.0027962367,0.6049192,13.86043927,100.51166235,-13.10211181640625
1649236068979,273.125,0.9375,-82.546875,-6.99375,1.125,58.55625,-1.4451637,0.4712969,-0.42704445,-11.312004,1.4520833,0.46806642,0.25299284,-0.108254306,-0.19826649,13.86043927,100.51166235,-13.10211181640625
1649236069085,275.85938,3.953125,-79.578125,-6.58125,2.25,58.912502,0.33724976,0.46596384,-0.028733969,-9.117719,1.5478514,1.1288661,0.0484681,0.3050561,0.090411656,13.86043927,100.51166235,-13.10211181640625
1649236069188,274.39062,1.609375,-81.46875,-8.83125,2.8125,58.3875,0.103694916,-0.15431994,-1.9170284,-9.716867,0.85772276,-1.3718776,0.027163442,0.65232205,-0.25578907,13.86043927,100.51166235,-13.10211181640625
1649236069288,273.90625,1.046875,-80.125,-11.7375,4.2375,57.131252,0.8813076,1.0215001,-0.6687154,-8.820838,2.1086931,-0.05925649,0.045272402,-0.21584284,0.22143531,13.86043927,100.51166235,-13.10211181640625
1649236069394,273.5,0.484375,-80.765625,-10.425,4.5750003,56.943752,-0.66378975,-0.018719435,-1.169011,-10.383054,1.0546459,-0.75357497,0.070838,0.20279373,-0.07682993,13.86043927,100.51166235,-13.10211181640625
1649236069497,275.48438,1.78125,-84.125,-10.5375,3.91875,56.268753,-0.51027775,0.16194808,-0.89095944,-9.970653,1.3036429,-0.30825347,0.12516488,-0.31917045,-0.16843997,13.86043927,100.51166235,-13.10211181640625
1649236069606,274.35938,0.796875,-83.9375,-8.56875,4.275,56.025,-0.027306557,0.041299522,-0.95868623,-9.779117,0.8098387,-0.23642741,0.6685669,-0.7271547,-0.35911667,13.86043927,100.51166235,-13.10211181640625
1649236069707,275.10938,1.03125,-84.53125,-5.2875004,7.2937503,55.4625,-0.7020149,0.47414315,-1.5344825,-10.195708,0.83856916,0.05566519,0.37549463,-0.3244966,-0.32929015,13.86043927,100.51166235,-13.10211181640625
1649236069816,275.95312,1.3125,-83.640625,-4.5375004,7.9500003,53.625004,-0.39231873,0.2693713,-1.3442376,-10.109517,0.75237787,-0.29388827,0.1677742,0.18148908,0.020106273,13.86043927,100.51166235,-13.10211181640625
1649236069923,280.60938,2.859375,-79.0,-5.64375,7.74375,53.456253,-0.6405239,-0.09746331,-1.0519112,-10.622475,0.44592008,-0.801459,-0.11451255,0.9207608,0.004127778,13.86043927,100.51166235,-13.10211181640625
1649236070023,284.45312,4.40625,-75.84375,-10.70625,7.0312505,53.175003,-0.34666634,-0.5395443,-1.1008829,-10.128671,0.28790274,-1.7118542,0.0047935485,0.6374088,0.3695027,13.86043927,100.51166235,-13.10211181640625
1649236070128,284.4375,1.734375,-80.859375,-13.687501,5.8875003,51.80625,0.08534241,-0.08528566,-0.29256868,-9.807847,0.75237787,-1.5155296,0.098534055,0.39347044,0.16391273,13.86043927,100.51166235,-13.10211181640625
1649236070237,275.32812,-175.73438,-84.9375,-16.050001,5.7562504,51.61875,-0.29229927,0.49700302,0.23022962,-10.075998,1.5717934,-1.1994951,0.11557778,-0.008122402,0.19586973,13.86043927,100.51166235,-13.10211181640625
1649236070341,273.6875,-174.67188,-81.609375,-16.03125,7.0687504,51.3375,0.06062889,0.00951004,-0.062248588,-9.745598,1.2078748,-1.2521675,-0.15605664,0.06005251,0.07762886,13.86043927,100.51166235,-13.10211181640625
1649236070444,271.28125,-173.15625,-77.21875,-14.493751,7.18125,52.237503,0.9263334,0.1907754,1.9987993,-8.552687,1.8447324,1.0474633,-0.10386022,0.24327259,0.10745538,13.86043927,100.51166235,-13.10211181640625
1649236070550,270.82812,-172.32812,-75.5625,-14.925,7.2000003,51.975002,-0.70033836,-0.55777353,0.7164812,-10.329783,0.8242039,-0.480636,0.13475198,0.35618728,-0.10985216,13.86043927,100.51166235,-13.10211181640625
1649236070654,270.21875,-171.73438,-75.09375,-16.893751,7.93125,50.79375,-0.33841324,-1.0453134,0.99662244,-9.879673,0.18255788,-0.66259533,0.07403369,1.0485888,-0.25046292,13.86043927,100.51166235,-13.10211181640625
1649236070756,267.20312,-169.39062,-74.90625,-21.1875,7.36875,49.443752,-0.78213596,-0.96416306,-0.54308534,-10.157401,-0.032920275,-2.665345,-0.11877348,-0.004926703,-0.27389804,13.86043927,100.51166235,-13.10211181640625
1649236070863,268.45312,-170.21875,-73.578125,-20.6625,6.0,49.350002,1.6831341,0.19813478,1.0539198,-7.7189064,1.0642227,-0.28431144,-0.28921077,-1.2469884,-0.14287437,13.86043927,100.51166235,-13.10211181640625
1649236070964,268.875,-170.96875,-71.21875,-15.993751,3.9750001,52.237503,-0.4026289,-0.032513916,1.2161338,-10.119094,0.09636662,0.8702923,-0.14433907,-0.8113081,-0.62009877,13.86043927,100.51166235,-13.10211181640625
1649236071074,271.0625,-173.1875,-69.1875,-11.3625,1.5375,53.250004,0.11974621,0.07896468,0.57620466,-9.405622,0.110731825,1.0378864,0.10386022,-0.596131,0.26510987,13.86043927,100.51166235,-13.10211181640625
1649236071179,270.60938,-172.9375,-73.625,-9.637501,1.6500001,55.0125,0.54431725,0.8114774,0.9063226,-9.132084,0.96306765,1.0905589,0.24234052,1.0752196,0.17030413,13.86043927,100.51166235,-13.10211181640625
1649236071282,274.1875,-177.07812,-82.8125,-11.64375,2.7562501,53.41875,-0.004617691,-0.06320405,1.155409,-9.472659,0.52253455,0.8367735,0.3169068,0.41370988,0.53567904,13.86043927,100.51166235,-13.10211181640625
1649236071385,274.42188,-177.125,-86.5,-13.087501,4.89375,53.531254,-0.85619545,-0.094409704,1.8679146,-11.844116,1.4856021,1.9195513,0.13688244,-0.4821511,0.4536561,13.86043927,100.51166235,-13.10211181640625
1649236071490,274.20312,-176.35938,-84.3125,-11.75625,6.9187503,52.875004,-2.8157816,1.105775,1.2382368,-11.11568,2.3529017,1.7136499,-0.23168819,0.03129122,-0.14500484,13.86043927,100.51166235,-13.10211181640625
1649236071592,272.92188,-174.14062,-79.546875,-11.793751,5.64375,53.025,-0.8476343,1.5052013,1.293655,-10.847529,2.1039047,0.8607155,0.09533835,-0.09014534,-0.6147726,13.86043927,100.51166235,-13.10211181640625
1649236071697,272.26562,-171.90625,-78.078125,-13.5375,5.25,53.325,-0.5442362,-0.16618007,1.0569239,-10.080787,0.24001873,0.59735334,0.26044947,0.39027476,-0.019307349,13.86043927,100.51166235,-13.10211181640625
1649236071803,273.625,-171.04688,-78.15625,-13.2375,5.68125,52.8375,0.20039272,-0.19378018,0.29701942,-9.324219,0.85772276,-0.11192893,0.46497422,-0.42036757,0.82542247,13.86043927,100.51166235,-13.10211181640625
1649236071909,277.20312,-174.875,-80.734375,-10.6875,8.64375,53.006252,1.3029709,0.93492067,0.87023884,-8.389881,2.2188265,1.0474633,0.010119714,-0.10612384,-0.25259337,13.86043927,100.51166235,-13.10211181640625
1649236072015,278.57812,-176.01562,-79.59375,-10.14375,8.175,52.912502,-0.14458847,0.21784914,0.9378444,-10.004171,1.2605472,1.0235212,0.10812115,0.11011846,-0.13754821,13.86043927,100.51166235,-13.10211181640625
1649236072123,278.73438,-173.21875,-79.140625,-11.08125,8.137501,52.725002,1.6605043,-0.28750432,0.65215904,-7.8386164,0.943914,0.62608373,0.2647104,-0.037948925,0.146869,13.86043927,100.51166235,-13.10211181640625
1649236072223,278.875,-172.3125,-79.9375,-9.9375,10.40625,51.750004,-1.0737963,0.1783446,-1.2384542,-10.890625,1.6579847,-1.2234371,0.36164662,0.06005251,0.146869,13.86043927,100.51166235,-13.10211181640625
1649236072325,280.51562,-173.85938,-80.6875,-9.712501,11.3625,51.768753,2.8221755,1.6032522,1.8348961,-6.770204,2.558803,2.4468741,-0.25618854,-0.47043353,-0.9471253,13.86043927,100.51166235,-13.10211181640625
1649236072426,281.3125,-173.03125,-79.671875,-8.475,9.0375,52.331253,-2.3758183,-0.23255238,0.7583134,-11.896789,-0.0664391,0.712275,0.40532115,1.4267465,0.048867565,13.86043927,100.51166235,-13.10211181640625
1649236072540,282.64062,-172.32812,-79.484375,-14.043751,11.0625,49.875004,1.9944258,-2.4033873,0.37035045,-7.776367,-1.0869676,0.002992752,0.09746882,-0.41504142,0.6922683,13.86043927,100.51166235,-13.10211181640625
1649236072634,284.21875,-174.4375,-83.0,-12.731251,14.85,47.943752,-0.10389805,0.22646856,-0.35020405,-10.061633,1.9548657,-1.0893618,0.6536536,-0.1529941,0.52822244,13.86043927,100.51166235,-13.10211181640625
1649236072735,287.67188,-177.875,-84.765625,-10.743751,15.918751,47.006252,1.7729721,2.1953871,1.014243,-7.8529816,3.976769,1.1288661,-0.3776251,-0.030492295,-0.3463339,13.86043927,100.51166235,-13.10211181640625
1649236072839,285.5625,-174.20312,-76.96875,-11.56875,14.793751,46.725002,-1.2616005,-0.3961345,0.549942,-11.134833,0.7858967,-0.006584055,0.17842653,0.27629483,-0.17696184,13.86043927,100.51166235,-13.10211181640625
1649236072942,285.875,-171.21875,-76.109375,-13.781251,16.2,45.975002,0.6132908,-1.3667907,0.5830567,-9.017162,0.15382746,-0.049679685,0.31264588,-0.069905914,0.22356579,13.86043927,100.51166235,-13.10211181640625
1649236073045,284.9375,-170.17188,-76.1875,-13.14375,17.831251,45.61875,-0.6188078,-1.3727207,0.27844188,-10.324995,0.28311434,-0.207697,0.052729033,-0.19666864,0.2661751,13.86043927,100.51166235,-13.10211181640625
1649236073153,288.01562,-173.64062,-76.296875,-11.137501,18.243752,44.943752,0.35857487,0.17598999,1.2212559,-9.189545,2.0649989,0.8702923,-0.07509893,-0.037948925,-0.06724283,13.86043927,100.51166235,-13.10211181640625
1649236073258,288.42188,-172.21875,-75.609375,-10.575001,17.7,43.95,-0.43715763,-0.3828299,0.524717,-10.176555,1.2318168,0.19512744,-0.007989247,-0.033687994,-0.16737475,13.86043927,100.51166235,-13.10211181640625
1649236073360,288.75,-171.625,-75.59375,-10.275001,17.98125,44.1375,-0.44776917,0.19728899,0.8897013,-9.985018,1.9835961,0.80325466,0.025032977,-0.15512456,0.22250055,13.86043927,100.51166235,-13.10211181640625
1649236073468,286.96875,-170.26562,-75.59375,-10.33125,18.056252,43.96875,0.298501,-0.73906267,0.54873514,-9.309854,0.6901286,0.34835634,0.03248961,0.21877223,-0.36124715,13.86043927,100.51166235,-13.10211181640625
1649236073565,288.0625,-171.64062,-76.25,-11.475,17.925001,42.6375,-0.15462399,-1.5048199,0.14038844,-9.884461,-0.30166942,-0.10235212,0.023967743,-0.0017310036,0.07975932,13.86043927,100.51166235,-13.10211181640625
1649236073674,287.625,-170.79688,-76.34375,-12.656251,18.75,41.850002,0.16862679,-0.92497957,0.46111143,-9.338584,0.6374562,0.35314476,-0.06657706,-0.1370156,0.30239302,13.85985569,100.51885552,-31.0130615234375
1649236073774,289.01562,-172.125,-76.5625,-12.731251,18.4125,41.381252,-2.2288427,0.39092433,0.90776706,-11.882423,2.0602105,0.8750807,-0.11451255,-0.085884415,0.22676148,13.85985569,100.51885552,-31.0130615234375
1649236073876,289.70312,-172.73438,-76.5,-12.76875,16.7625,41.68125,1.4143276,1.0568533,0.33952507,-8.255806,2.5779567,0.61650693,-0.38934267,-0.2019948,-0.7553834,13.85985569,100.51885552,-31.0130615234375
1649236073978,287.84375,-170.79688,-75.796875,-12.993751,16.0125,43.59375,0.25458813,-0.43150756,1.2401378,-9.467871,0.28311434,1.6944963,-0.09640359,-0.11358047,-0.2760285,13.85985569,100.51885552,-31.0130615234375
1649236074079,286.79688,-170.125,-75.84375,-13.181251,14.775001,43.7625,0.17983818,-3.0257182,0.014807686,-9.434352,-2.2080526,-0.0688333,0.4713656,0.21557653,0.47496077,13.85985569,100.51885552,-31.0130615234375
1649236074184,286.21875,-170.9375,-77.265625,-12.01875,17.7,42.412502,2.207028,-1.9068606,1.6840575,-7.599196,-0.4213795,2.0919337,0.23062295,-0.3340837,0.12236864,13.85985569,100.51885552,-31.0130615234375
1649236074287,288.10938,-174.28125,-80.203125,-9.31875,18.13125,43.612503,0.4283285,-1.8521717,-0.9463944,-9.146449,-0.37828386,-0.7344214,-0.30838495,0.09094427,-0.13754821,13.85985569,100.51885552,-31.0130615234375
1649236074390,288.6875,-173.5,-78.265625,-9.28125,15.58125,43.59375,-2.3418112,-0.84734875,-1.2495162,-12.289437,-0.11432313,-1.5586253,-0.3286244,1.3926591,-0.80012316,13.85985569,100.51885552,-31.0130615234375
1649236074494,287.51562,-170.96875,-77.8125,-13.500001,14.531251,44.287502,-1.2204037,5.103623,-3.7113829,-10.378265,5.6539073,-3.681085,-0.39253837,-1.3461882,0.8499228,13.85985569,100.51885552,-31.0130615234375
1649236074598,288.96875,-171.60938,-78.609375,-7.74375,12.3,46.5,2.4981852,1.6953304,1.8892586,-7.2209125,2.2667105,2.5713725,-0.037815772,0.53621167,-1.4745488,13.85985569,100.51885552,-31.0130615234375
1649236074700,287.60938,-174.1875,-76.84375,-10.106251,11.400001,46.443752,-2.163474,-2.8983178,-2.7007768,-11.748347,-3.1280246,-1.4676456,-0.37655988,-0.033687994,-0.14713532,13.85985825,100.51883395,-33.33172607421875
1649236074801,283.54688,-172.70312,-75.296875,-12.618751,11.137501,45.412502,-2.315073,-3.8847017,-0.9613501,-12.045229,-3.913921,-1.1994951,0.13581721,0.5053199,0.92875004,13.85985825,100.51883395,-33.33172607421875
1649236074906,282.8125,-173.875,-82.578125,-11.400001,11.043751,45.5625,0.7947893,-0.5063117,2.1225185,-8.907029,0.3453636,2.5713725,-0.13581721,-0.394802,0.18202169,13.85985825,100.51883395,-33.33172607421875
1649236075008,289.95312,179.64062,-82.625,-9.075001,11.212501,46.0125,-2.1137,1.0036225,-2.035002,-11.7148285,2.0745757,-1.9033904,-0.13794768,0.4403407,0.080824554,13.85985825,100.51883395,-33.33172607421875
1649236075113,285.92188,-177.35938,-79.8125,-9.450001,10.762501,45.600002,1.5596933,1.5736575,2.0194879,-8.30369,2.3959973,2.5809495,-0.5938674,-0.27336544,-0.5402063,13.85985825,100.51883395,-33.33172607421875
1649236075215,278.6875,-171.75,-79.234375,-9.65625,8.2875,46.74375,-2.5232048,-0.037164778,0.49779296,-12.198458,0.27832595,0.90381116,-0.10492545,0.13248836,0.2533923,13.85985825,100.51883395,-33.33172607421875
1649236075322,279.23438,-172.26562,-78.453125,-10.575001,8.475,46.800003,1.2720146,-0.34438246,0.52390087,-8.581417,0.6326678,0.90381116,0.12516488,-0.24140844,0.19906542,13.85985825,100.51883395,-33.33172607421875
1649236075438,276.04688,-172.4375,-79.5,-10.087501,9.900001,46.537502,-0.068042755,-0.9520876,0.4562856,-9.755175,-0.13347675,0.961272,-0.14007814,0.24859875,-0.039546777,13.85985825,100.51883395,-33.33172607421875
1649236075542,275.9375,-173.51562,-79.640625,-10.3125,8.8125,47.193752,0.0096178055,-1.0177513,1.136436,-9.712079,-0.032920275,1.5269021,-0.060185667,-0.06031882,0.33115432,13.85985825,100.51883395,-33.33172607421875
1649236075642,273.45312,-170.73438,-78.15625,-9.75,8.3625,47.49375,0.0887928,-1.226425,0.07336342,-9.578004,0.034117375,0.49200845,-0.16138281,0.025965055,0.27363172,13.85985825,100.51883395,-33.33172607421875
1649236075748,273.71875,-171.25,-78.53125,-9.168751,7.70625,51.15,-0.7141924,0.54209185,-1.0292281,-10.421362,2.1757307,-0.85891986,-0.10918639,0.3178389,0.3279586,13.85980125,100.51887468,-40.103363037109375
1649236075854,271.23438,-169.75,-77.140625,-9.76875,7.2000003,51.468754,0.9757719,1.4066678,-1.0816393,-8.413823,3.0520086,-0.5189432,-0.5352796,-0.23608227,-0.017176883,13.85980125,100.51887468,-40.103363037109375
1649236075958,269.375,-168.3125,-75.984375,-12.0375,4.3500004,52.18125,0.41853333,0.06592512,0.08672905,-9.348161,1.1552023,0.45848963,-0.30199355,0.3625787,-0.6147726,13.85980125,100.51887468,-40.103363037109375
1649236076061,265.875,-166.23438,-73.96875,-12.6,3.3750002,52.74375,-0.037013054,-1.0343678,-0.40984637,-9.683349,-0.047285482,-0.4854244,-0.013315413,0.25499016,0.25126183,13.85980125,100.51887468,-40.103363037109375
1649236076168,262.6875,-164.875,-73.109375,-12.637501,3.7875001,53.737503,0.08859444,-1.4974321,-1.3263212,-9.640253,-0.16759412,-1.6160861,0.10492545,-0.016644266,0.24593568,13.85980125,100.51887468,-40.103363037109375
1649236076275,263.15625,-167.34375,-75.28125,-12.58125,4.6875,55.0875,-0.18612766,0.26805198,-1.534913,-9.879673,2.0266917,-1.7166426,-0.21677493,-0.27336544,0.2501966,13.85980125,100.51887468,-40.103363037109375
1649236076380,262.125,-167.64062,-74.28125,-11.2875,3.6937501,55.875004,0.9482212,1.5635704,-0.32419145,-8.5143795,3.056797,0.19512744,-1.0135692,-0.33195323,-0.48055324,13.85980125,100.51887468,-40.103363037109375
1649236076484,260.96875,-166.35938,-72.59375,-10.05,-1.03125,56.9625,-0.9325495,-0.22018623,1.5339379,-10.737396,0.25438392,1.5891514,-0.33608103,0.57029915,-0.78734034,13.85980125,100.51887468,-40.103363037109375
1649236076583,258.90625,-164.28125,-71.609375,-12.675,-2.8312502,56.850002,-0.8296299,-1.5194883,1.4051222,-10.5362835,-0.7757214,1.3928268,0.2966674,-0.12849373,0.88401026,13.85980125,100.51887468,-40.103363037109375
1649236076697,255.15625,-164.5,-73.484375,-12.58125,-0.22500001,56.531254,1.0597811,0.27501976,0.532668,-8.552687,1.9213469,0.8846575,-0.056989968,-0.040079392,0.18095645,13.85976267,100.51886421,-29.643829345703125
1649236076795,255.1875,-168.53125,-76.84375,-12.31875,-0.675,57.318752,-0.5523815,0.56902456,-0.24222544,-10.152613,2.0506337,-0.011372458,-0.39786452,0.24220736,-0.0885475,13.85976267,100.51886421,-29.643829345703125
1649236076902,254.04688,-167.48438,-75.328125,-13.481251,-3.61875,56.4,0.25729847,0.7462721,1.1779232,-9.424775,2.1374235,1.2725182,-0.35738567,0.074965775,-0.12050448,13.85976267,100.51886421,-29.643829345703125
1649236077004,250.92188,-163.26562,-72.015625,-14.231251,-4.59375,57.112503,-0.80081177,0.33833122,0.9805887,-10.445304,1.590947,1.0139444,-0.08042509,0.118640326,0.12130341,13.85976267,100.51886421,-29.643829345703125
1649236077113,250.23438,-163.9375,-72.265625,-14.1,-4.2937503,56.943752,-0.41031933,-0.039240003,0.5537835,-10.119094,1.4999673,0.59735334,0.05059857,-0.030492295,0.20439158,13.85976267,100.51886421,-29.643829345703125
1649236077220,247.17188,-164.0,-72.265625,-14.418751,-4.875,57.80625,0.35117912,0.4891181,0.50010824,-9.26197,2.285864,0.7793127,-0.24234052,-0.020905199,-0.03422061,13.85976267,100.51886421,-29.643829345703125
1649236077323,245.92188,-163.9375,-72.0625,-14.64375,-5.71875,57.281254,0.467741,0.33281648,0.06965965,-9.184756,2.1134815,0.4297592,-0.23914482,0.018508423,-0.01291595,13.85976267,100.51886421,-29.643829345703125
1649236077428,245.0625,-162.96875,-71.125,-15.168751,-6.76875,58.0875,0.4424343,0.4759164,0.34646738,-9.165603,2.3385365,0.80325466,-0.16244803,0.16764104,-0.16524427,13.85976267,100.51886421,-29.643829345703125
1649236077536,243.14062,-161.75,-70.28125,-15.95625,-7.89375,57.99375,-0.42886543,-0.2742957,-0.9736241,-9.941922,1.5095441,-0.86370826,0.045272402,0.06644391,0.1500647,13.85976267,100.51886421,-29.643829345703125
1649236077640,242.21875,-161.9375,-70.46875,-17.00625,-6.61875,56.250004,0.17209911,0.12609267,-0.5974171,-9.510966,1.9596541,-0.53809685,-0.1517957,0.04833495,-0.150331,13.85976267,100.51886421,-29.643829345703125
1649236077744,240.65625,-161.90625,-70.53125,-17.15625,-6.9187503,54.506252,0.03869629,0.08480775,-0.30909437,-9.582792,1.7729063,-0.24121583,-0.15925233,0.021704122,-0.024633514,13.85976347,100.51884529,-29.6688232421875
1649236077845,243.14062,-164.29688,-73.875,-16.9125,-8.1,55.331253,0.054567337,0.021783471,-0.28658906,-9.582792,1.6196774,-0.44232875,-0.09320789,0.103727065,-0.14393961,13.85976347,100.51884529,-29.6688232421875
1649236077950,242.57812,-164.1875,-73.828125,-16.650002,-8.325001,54.468754,0.0790987,-0.3102672,-0.37495473,-9.611523,1.1599907,-0.7009025,-0.06551183,0.12183603,-0.055525273,13.85976347,100.51884529,-29.6688232421875
1649236078057,242.17188,-164.84375,-74.4375,-17.90625,-8.90625,55.256252,-0.21253967,-0.063280225,-0.4413369,-9.846154,1.3563153,-0.85413146,-0.12942581,-0.018774733,-0.0022636203,13.85976347,100.51884529,-29.6688232421875
1649236078161,243.95312,-167.375,-76.9375,-17.025002,-10.012501,54.975002,0.15036297,0.059113264,-0.21094868,-9.5013895,1.389834,-0.705691,-0.16990466,0.04620448,-0.12583065,13.85976347,100.51884529,-29.6688232421875
1649236078267,247.14062,-170.85938,-80.1875,-19.35,-11.45625,53.8875,-0.13199615,-0.0877465,-0.051902294,-9.817424,1.2318168,-0.57161564,-0.1422086,0.03555215,0.028628137,13.85976347,100.51884529,-29.6688232421875
1649236078373,247.78125,-172.07812,-80.96875,-18.993752,-11.681251,54.600002,-0.10608482,-0.08797538,-0.18745399,-9.860519,1.2126632,-0.7918822,-0.12836058,0.021704122,-0.024633514,13.85976347,100.51884529,-29.6688232421875
1649236078479,246.57812,-172.04688,-81.078125,-18.46875,-12.431251,54.037502,0.112565994,0.22183573,-0.21843445,-9.578004,1.5622166,-0.74399817,-0.20292689,0.011051793,-0.054460037,13.85976347,100.51884529,-29.6688232421875
1649236078584,246.26562,-172.48438,-81.5625,-19.575,-13.25625,54.487503,-0.28377438,0.09342325,-0.06830734,-9.91798,1.4041992,-0.58119243,-0.1773613,-0.03581846,0.046737097,13.85976347,100.51884529,-29.6688232421875
1649236078687,245.73438,-172.79688,-81.734375,-18.91875,-12.58125,54.037502,0.1641674,-0.051849008,-0.08410114,-9.601946,1.2126632,-0.66738373,-0.16883944,0.06005251,-0.085351795,13.85970829,100.51882145,-19.16546630859375
1649236078794,244.1875,-172.17188,-80.984375,-19.3125,-14.793751,54.562504,0.083639145,-0.20335329,-0.16647255,-9.621099,1.0163386,-0.7344214,-0.2093183,0.030225987,-0.08428656,13.85970829,100.51882145,-19.16546630859375
1649236078894,243.04688,-172.21875,-81.171875,-20.38125,-15.168751,53.625004,-0.14776611,-0.13124347,-0.042167783,-9.865308,1.0881647,-0.76315176,-0.18694839,0.00998656,0.046737097,13.85970829,100.51882145,-19.16546630859375
1649236079000,241.95312,-172.28125,-81.453125,-20.15625,-15.7875,54.468754,0.25990105,0.0065609217,0.07393056,-9.434352,1.2413936,-0.57161564,-0.20399213,0.0057256273,-0.053394806,13.85970829,100.51882145,-19.16546630859375
1649236079103,242.39062,-173.53125,-82.15625,-19.725,-16.931252,53.175003,0.0043945312,-0.25502706,-0.22705704,-9.736021,0.8098387,-0.9211691,-0.20186166,0.07709624,-0.10239553,13.85970829,100.51882145,-19.16546630859375
1649236079208,241.6875,-174.09375,-82.46875,-20.6625,-17.400002,53.5125,-0.34081364,-0.06255472,0.1342746,-10.052056,1.0067618,-0.57640404,-0.1645785,0.022769356,0.047802333,13.85970829,100.51882145,-19.16546630859375
1649236079313,239.76562,-173.125,-82.109375,-21.1875,-17.212502,52.875004,0.20580482,0.21459317,0.21398413,-9.4774475,1.246182,-0.54767364,-0.16031757,0.044074018,-0.22170162,13.85970829,100.51882145,-19.16546630859375
1649236079416,239.35938,-174.04688,-82.515625,-21.65625,-18.75,52.875004,-0.38781834,-0.1871742,-0.36308378,-9.932345,0.5943606,-1.2856863,-0.13688244,0.15485825,-0.150331,13.85970829,100.51882145,-19.16546630859375
1649236079515,239.10938,-174.73438,-82.890625,-20.868752,-20.25,52.8375,-0.0813303,-0.10968548,-0.066456676,-9.850943,0.6422446,-1.055843,-0.11451255,3.9946238E-4,0.026497671,13.85970829,100.51882145,-19.16546630859375
1649236079621,236.5625,-173.375,-82.328125,-21.50625,-20.19375,53.381252,-0.32459164,-0.116761446,0.17637765,-9.956287,0.670975,-0.7344214,-0.21464445,0.05898728,0.09999875,13.85970829,100.51882145,-19.16546630859375
1649236079726,237.09375,-174.92188,-82.78125,-22.59375,-21.225,56.475002,-0.016429901,-0.11153716,0.1557228,-9.736021,0.6853402,-0.7823054,-0.23062295,0.043008782,-0.04061201,13.85969903,100.51880984,-15.61627197265625
1649236079834,237.1875,-175.90625,-83.109375,-22.66875,-22.7625,56.156254,0.10740852,0.13427585,0.06378573,-9.654618,1.0594343,-0.7918822,-0.22210109,-0.06884068,0.12449911,13.85969903,100.51880984,-15.61627197265625
1649236079938,235.96875,-175.65625,-83.3125,-22.837502,-23.643751,56.04375,-0.0104494095,0.3146565,0.12681848,-9.67856,1.2892777,-0.6099229,-0.23488387,-0.023035664,-0.0022636203,13.85969903,100.51880984,-15.61627197265625
1649236080041,234.51562,-175.76562,-83.640625,-23.400002,-25.050001,55.612503,-0.0267725,0.14029324,0.1001873,-9.764751,1.1647792,-0.6051345,-0.20292689,0.04620448,-0.038481545,13.85969903,100.51880984,-15.61627197265625
1649236080144,232.98438,-175.28125,-83.40625,-24.956251,-24.91875,54.525,-0.09890556,-0.023216248,0.15806729,-9.731233,1.0115502,-0.5907693,-0.16670896,0.044074018,0.024367206,13.85969903,100.51880984,-15.61627197265625
1649236080244,229.09375,-173.07812,-81.984375,-24.825,-25.181252,53.850002,0.06414032,-0.21290255,0.03458965,-9.5971575,0.8002619,-0.705691,-0.20186166,0.07603101,-0.059786204,13.85969903,100.51880984,-15.61627197265625
1649236080352,227.53125,-172.96875,-82.078125,-25.593752,-26.38125,53.568752,-0.011738777,-0.39883822,-0.1491887,-9.712079,0.4985925,-0.9792285,-0.20079643,0.062182978,-0.02676398,13.85969903,100.51880984,-15.61627197265625
1649236080459,227.46875,-173.6875,-82.71875,-25.837502,-27.300001,53.062504,-0.2580881,-0.07982087,-0.044213414,-9.860519,0.83378077,-0.9403227,-0.19973119,-0.019839965,0.119172946,13.85969903,100.51880984,-15.61627197265625
1649236080564,227.3125,-174.75,-83.375,-25.706251,-27.806252,51.7125,0.093904495,0.27158535,0.02947414,-9.582792,1.2605472,-0.8062474,-0.180557,0.096270435,-0.010785485,13.85969903,100.51880984,-15.61627197265625
1649236080668,227.48438,-176.23438,-83.5625,-25.593752,-28.031252,50.325,0.048264503,0.064044714,0.17837083,-9.726444,1.1168951,-0.7104794,-0.19973119,0.07177007,-0.057655737,13.85967165,100.51880949,-11.701690673828125
1649236080768,226.07812,-175.8125,-83.34375,-25.3875,-29.118752,50.11875,-0.1649971,-0.14299452,0.06294757,-9.922769,0.83378077,-0.86849666,-0.16031757,0.032356452,0.02223674,13.85967165,100.51880949,-11.701690673828125
1649236080885,222.1875,-173.5625,-81.984375,-25.125002,-29.250002,49.818752,-0.027628899,-0.3403656,0.016235411,-9.688137,0.55126494,-0.9068039,-0.1933398,0.08455287,-0.07363423,13.85967165,100.51880949,-11.701690673828125
1649236080982,220.85938,-173.34375,-81.59375,-24.525002,-29.643751,48.43125,0.07042885,-0.07785618,0.13169587,-9.616311,0.84335756,-0.66259533,-0.25512332,-0.018774733,0.06804176,13.85967165,100.51880949,-11.701690673828125
1649236081091,220.92188,-174.51562,-82.65625,-25.218752,-30.225,48.412502,-0.2843647,-0.4227863,0.17774624,-9.922769,0.3788824,-0.7248446,-0.19014409,0.09733567,-0.018242115,13.85967165,100.51880949,-11.701690673828125
1649236081195,221.04688,-175.84375,-83.203125,-25.9125,-30.581251,46.912502,-0.008219719,-0.06593871,-0.38066536,-9.716867,0.84335756,-1.2378023,-0.25512332,-0.061384052,0.074433155,13.85967165,100.51880949,-11.701690673828125
1649236081302,218.95312,-175.375,-83.390625,-24.806252,-31.087502,46.78125,0.024311066,0.14582276,-0.10867363,-9.712079,1.0307038,-1.0414777,-0.2998631,0.017443191,-0.064047135,13.85967165,100.51880949,-11.701690673828125
1649236081407,219.23438,-176.59375,-84.4375,-24.150002,-32.381252,45.525,0.13207436,0.39890027,-0.16004825,-9.640253,1.3515269,-1.055843,-0.25725377,-0.06884068,-0.032090146,13.85967165,100.51880949,-11.701690673828125
1649236081511,217.17188,-176.0,-82.96875,-23.2875,-32.662502,45.2625,0.023903847,0.16104066,-0.28164786,-9.716867,1.0881647,-1.2378023,-0.21677493,0.13035789,-0.106656455,13.85967165,100.51880949,-11.701690673828125
1649236081612,214.34375,-174.65625,-81.953125,-22.987501,-33.881252,44.90625,-0.0853796,-0.46733075,-0.09182882,-9.803059,0.28311434,-1.2234371,-0.13581721,0.20172851,-0.08322133,13.85967165,100.51880949,-11.701690673828125
1649236081719,211.5,-173.82812,-81.640625,-23.53125,-33.43125,44.081253,-0.017543793,-0.5276924,-1.0780226,-9.640253,0.40761283,-2.4259248,-0.19014409,-0.16790736,0.22463101,13.85965966,100.51881515,-12.0509033203125
1649236081820,210.25,-174.1875,-81.484375,-22.2,-33.862503,43.85625,0.21198845,0.23499334,-0.40050185,-9.458294,1.0067618,-1.7741034,-0.34140718,0.08455287,-0.25152814,13.85965966,100.51881515,-12.0509033203125
1649236081931,210.4375,-175.20312,-81.015625,-21.075,-34.350002,42.768753,-0.37740898,-0.38398603,-0.22447395,-10.023325,0.16819267,-1.8986019,-0.18268746,0.15805395,-0.072569,13.85965966,100.51881515,-12.0509033203125
1649236082030,208.60938,-174.1875,-80.390625,-21.50625,-35.006252,42.54375,0.3528719,-0.4645595,-0.35450852,-9.281123,0.091578215,-2.1003134,-0.14327385,0.08135717,0.053128496,13.85965966,100.51881515,-12.0509033203125
1649236082138,206.90625,-174.67188,-81.140625,-21.112501,-35.625,42.581253,0.06394005,-0.85237557,-0.49325728,-9.491813,-0.47405192,-2.5121162,-0.23168819,0.08455287,-0.0693733,13.85965966,100.51881515,-12.0509033203125
1649236082248,207.28125,-176.34375,-80.078125,-21.91875,-36.2625,42.825,-0.45001125,-0.67751586,-0.1426723,-9.999383,-0.33039984,-2.1242554,-0.28175414,-0.17429875,0.13621667,13.85965966,100.51881515,-12.0509033203125
1649236082351,205.51562,-175.64062,-79.5,-20.625,-36.91875,41.9625,0.3629284,0.20120117,-0.24699616,-9.352949,0.6278794,-1.9512744,-0.43727815,-0.35751882,-0.03741631,13.85965966,100.51881515,-12.0509033203125
1649236082452,204.70312,-175.875,-79.0625,-19.66875,-38.23125,42.375,0.33432293,0.014655292,0.39798713,-9.664195,0.39324763,-1.1468226,-0.46603945,-0.24993029,-0.4432701,13.85965966,100.51881515,-12.0509033203125
1649236082555,202.5,-175.46875,-79.296875,-17.04375,-40.068752,42.3375,-0.23833275,-0.34221423,0.5678508,-9.956287,-0.2777274,-0.7248446,-0.30412403,0.023834588,0.032889068,13.85965966,100.51881515,-12.0509033203125
1649236082658,201.57812,-176.64062,-80.703125,-16.893751,-40.237503,41.925003,-0.19406319,-0.61499727,-0.23408926,-9.850943,-0.25378537,-1.4293385,-0.20186166,-0.35112745,0.32902384,13.85965966,100.51881515,-12.0509033203125
1649236082762,200.53125,-177.84375,-82.5625,-17.400002,-40.18125,42.506252,0.052300453,0.24367666,0.36046532,-9.79827,0.6183026,-0.3705027,-0.39892977,-0.062449288,-0.15565717,13.85964821,100.51882711,-11.04931640625
1649236082866,198.51562,-178.5625,-83.34375,-17.23125,-41.643753,41.04375,0.4489498,-0.4504236,0.36182535,-9.136872,-0.2825158,-0.54767364,-0.34140718,0.21238084,-0.15885288,13.85964821,100.51882711,-11.04931640625
1649236082969,196.34375,-177.40625,-83.546875,-17.587502,-41.925003,40.237503,0.08307552,-0.3619628,-0.1470154,-9.707291,-0.0664391,-1.1659763,-0.14327385,0.13568406,0.2725665,13.85964821,100.51882711,-11.04931640625
1649236083077,193.39062,-176.48438,-84.78125,-18.54375,-42.28125,38.8875,0.12001324,0.17603314,0.31032646,-9.755175,0.39803603,-0.84934306,-0.25938424,0.2912081,-0.30798548,13.85964821,100.51882711,-11.04931640625
1649236083182,193.5,-179.0625,-85.84375,-18.69375,-42.91875,37.612503,-0.58193016,-0.07776162,-0.04709184,-10.354323,-0.018555064,-1.5490485,-0.16883944,0.27309912,0.07017223,13.85964821,100.51882711,-11.04931640625
1649236083285,191.92188,-178.40625,-85.21875,-19.59375,-43.125,36.5625,0.44416618,0.2604216,0.36380804,-9.4535055,0.66618663,-0.9888053,-0.1965355,-0.18282062,0.09254212,13.85964821,100.51882711,-11.04931640625
1649236083388,190.40625,-178.51562,-84.125,-19.650002,-42.80625,35.9625,0.25145626,-0.073861,0.2562086,-9.41041,0.6039374,-0.801459,-0.27216703,-0.072036386,0.3077192,13.85964821,100.51882711,-11.04931640625
1649236083495,189.90625,-179.20312,-82.59375,-19.25625,-42.975002,36.15,-0.3393488,-0.6465796,0.20049691,-9.975441,-0.15801731,-1.079785,-0.08681649,0.2688382,-0.24939768,13.85964821,100.51882711,-11.04931640625
1649236083601,187.39062,-177.92188,-82.21875,-20.23125,-42.318752,35.23125,-0.71174145,-0.621602,-0.108356714,-10.123882,-0.061650693,-1.6352397,-0.021837277,0.09413997,0.3567199,13.85964821,100.51882711,-11.04931640625
1649236083703,184.28125,-176.15625,-82.59375,-20.868752,-41.643753,35.025,-0.46543217,0.22661841,0.6418066,-9.985018,0.997185,-0.9696517,-0.16351327,-0.05605789,9.320789E-4,13.85964821,100.51882711,-11.04931640625
1649236083806,184.07812,-176.76562,-81.859375,-20.75625,-43.893753,34.21875,-0.47380733,0.6294345,0.5984441,-9.822212,1.3563153,-0.6769605,-0.2742975,-0.044340324,-0.11943925,13.85964821,100.51882711,-11.04931640625
1649236083911,183.04688,-176.23438,-80.78125,-18.9375,-45.862503,33.65625,-0.12466049,0.2800856,0.54320586,-9.946711,0.7092823,-0.5955577,-0.2647104,-0.05392742,-0.39000845,13.85964821,100.51882711,-11.04931640625
1649236084013,180.98438,-174.92188,-80.984375,-18.84375,-46.575,33.15,-0.87000465,-0.055012405,0.19240952,-10.526707,0.40282443,-1.1468226,5.326165E-4,0.14953208,0.3503285,13.85964821,100.51882711,-11.04931640625
1649236084117,179.54688,-175.29688,-81.546875,-20.1,-46.3875,32.625,3.1089783E-4,0.34192598,0.18872249,-9.913192,0.9923966,-1.1133038,-0.08255556,-0.069905914,-0.23554966,13.85964821,100.51882711,-11.04931640625
1649236084225,180.04688,-177.60938,-82.46875,-19.03125,-47.175003,31.800001,0.33606625,0.077957004,0.22259319,-8.945336,0.52253455,-0.9983821,-0.17949176,-0.04647079,0.005193011,13.85964821,100.51882711,-11.04931640625
1649236084335,179.5625,-177.42188,-81.59375,-19.331251,-47.568752,29.6625,-1.7816172,-0.39376333,-0.13999152,-11.614272,0.12030864,-1.3814543,-0.028228676,0.024899822,0.10212921,13.85964821,100.51882711,-11.04931640625
1649236084441,178.59375,-176.51562,-81.3125,-19.462502,-48.075,29.2875,0.17161846,0.40181184,0.3880058,-9.1272955,0.7188591,-1.2521675,0.067642294,-0.07523208,-0.04167724,13.85964821,100.51882711,-11.04931640625
1649236084548,178.17188,-177.09375,-81.84375,-18.112501,-48.35625,28.66875,0.2739153,0.4083188,0.4235295,-9.645041,0.919972,-0.56203884,-0.17203513,-0.008122402,-0.009720251,13.85964821,100.51882711,-11.04931640625
1649236084648,178.35938,-177.53125,-81.4375,-17.19375,-49.406254,27.487501,-0.2881384,-0.3701709,0.6063222,-9.985018,0.17298107,-0.7248446,-0.06657706,0.117575094,-0.0629819,13.85964821,100.51882711,-11.04931640625
1649236084747,177.57812,-176.85938,-81.734375,-17.362501,-50.2125,26.23125,-0.7293863,-0.22041324,0.15398073,-10.061633,0.29269117,-1.3670892,0.11451255,-0.28082207,0.34500235,13.85964821,100.51882711,-11.04931640625
1649236084854,177.23438,-177.26562,-82.34375,-17.53125,-49.85625,27.6,0.26634407,0.8703216,0.7360048,-9.534908,1.6101006,-0.25079262,-0.21570969,-0.011318101,-0.24513675,13.85964821,100.51882711,-11.04931640625
1649236084957,176.82812,-177.40625,-81.5,-16.331251,-51.525,25.612501,-0.4924984,-0.22475594,0.2507105,-10.176555,0.31184477,-0.87807345,-0.09640359,0.074965775,0.012649642,13.85964821,100.51882711,-11.04931640625
1649236085063,176.625,-176.79688,-81.78125,-15.168751,-51.787502,24.337502,-0.55504227,0.045609236,0.08986974,-10.195708,0.64703304,-1.1947067,0.113447316,-0.08055825,0.12449911,13.85964821,100.51882711,-11.04931640625
1649236085168,175.70312,-176.73438,-82.640625,-16.5,-51.73125,23.475,0.9023676,-0.01429987,0.573032,-8.648455,0.40761283,-0.4950012,-0.05912043,0.0920095,-0.26537618,13.85964821,100.51882711,-11.04931640625
1649236085276,175.90625,-177.75,-81.984375,-15.337501,-52.912502,23.081251,-0.32021618,-0.36689037,0.11967456,-10.080787,0.24480712,-0.801459,0.007989247,-0.03581846,0.4568518,13.85964821,100.51882711,-11.04931640625
1649236085380,175.48438,-176.95312,-82.265625,-16.78125,-52.66875,22.48125,-0.034074783,0.5858975,0.9074085,-9.850943,1.2509704,-0.15023616,-5.326165E-4,-0.05712312,-0.16843997,13.85964821,100.51882711,-11.04931640625
1649236085482,175.65625,-177.48438,-82.5625,-16.35,-53.2125,22.0125,-0.0678215,0.046450675,1.0092897,-9.736021,0.75237787,0.15143326,-0.04314194,0.1015966,-0.042742476,13.85964821,100.51882711,-11.04931640625
1649236085586,175.29688,-177.0625,-81.96875,-14.3625,-52.85625,21.806252,-0.85517883,-0.39763623,0.6189574,-10.387842,0.42197806,-0.26036942,0.10386022,-0.023035664,0.29919732,13.85964821,100.51882711,-11.04931640625
1649236085690,174.28125,-176.09375,-82.28125,-16.95,-51.506252,20.23125,0.75680256,0.19104189,1.1085815,-8.772954,1.0833763,0.23343466,-0.05059857,-0.041144624,-0.10452599,13.85964821,100.51882711,-11.04931640625
1649236085794,174.21875,-176.32812,-82.21875,-16.181252,-51.91875,19.5375,-1.2347383,0.05802232,0.50258,-10.406996,0.7332243,-0.3417723,-0.0047935485,-0.030492295,0.14473854,13.85964821,100.51882711,-11.04931640625
1649236085898,173.96875,-175.78125,-81.578125,-17.34375,-53.287502,18.31875,-0.15028286,0.62634057,1.1219594,-10.028113,1.4856021,0.6835446,-0.012250179,-0.015579033,-0.09387366,13.85964821,100.51882711,-11.04931640625
1649236086001,173.28125,-175.125,-81.609375,-16.63125,-55.18125,19.10625,-0.0013313293,0.24870121,1.0790658,-9.592369,1.1264719,0.62129533,0.020772044,0.04620448,0.0115844095,13.85964821,100.51882711,-11.04931640625
1649236086109,173.5625,-175.71875,-82.09375,-17.5125,-57.037502,21.206251,0.07267666,-0.27188134,0.1711066,-9.5732155,0.6087258,-0.27473465,-0.017576344,0.015312725,0.009453943,13.85964821,100.51882711,-11.04931640625
1649236086213,172.6875,-175.3125,-82.046875,-17.94375,-58.275,23.1,-0.5680618,-0.13841909,0.6900166,-10.315418,0.7858967,0.2908955,0.0015978495,-0.027296597,0.06378083,13.85964821,100.51882711,-11.04931640625
1649236086317,172.78125,-175.35938,-81.875,-18.150002,-58.66875,24.975,-0.28059387,0.20072609,0.6277751,-9.850943,0.7763199,0.17058687,0.03355484,0.08455287,-0.09600413,13.85964821,100.51882711,-11.04931640625
1649236086423,172.79688,-175.26562,-81.4375,-17.0625,-58.48125,26.625002,-0.11016369,0.46055388,0.5304473,-9.865308,1.3994108,0.4345476,-0.015445879,-0.12955897,0.15219517,13.85964821,100.51882711,-11.04931640625
1649236086527,172.89062,-175.34375,-84.890625,-17.60625,-56.906254,28.087502,-0.50970554,0.19272876,0.7966778,-10.253169,1.1599907,0.7170634,0.016511112,0.039813083,-0.08641703,13.85964821,100.51882711,-11.04931640625
1649236086635,172.875,-175.67188,-85.265625,-16.875,-54.975002,28.931252,0.599741,0.13910013,0.28975886,-9.002797,1.1216835,0.45370123,-0.0047935485,-0.02197043,0.0030625449,13.85964821,100.51882711,-11.04931640625
1649236086744,172.20312,-175.04688,-84.796875,-17.400002,-53.1375,28.931252,-0.4296713,-0.1462127,-0.03417567,-10.128671,0.85293436,0.10354923,0.016511112,-0.004926703,0.15112993,13.85962461,100.51890978,-6.208709716796875
1649236086846,172.5,-175.35938,-85.03125,-17.0625,-51.487503,29.1,-0.32828808,0.16489601,0.50793004,-10.119094,1.1408371,0.5686229,0.037815772,0.03448692,-0.09174319,13.85962461,100.51890978,-6.208709716796875
1649236086948,172.34375,-175.17188,-85.09375,-17.175001,-50.456253,28.7625,0.14855671,0.3502847,0.20893228,-9.300277,1.3706805,0.23343466,0.034620073,-0.024100898,0.07336792,13.85962461,100.51890978,-6.208709716796875
1649236087053,172.29688,-4.96875,-85.015625,-16.837502,-49.593754,27.000002,0.26470852,-0.15339255,0.0029562712,-9.659407,0.9056068,0.2717419,0.007989247,0.054726347,-0.08002563,13.85962461,100.51890978,-6.208709716796875
1649236087156,171.29688,-5.9375,-84.0,-17.400002,-48.487503,26.925001,0.5210686,-0.35063785,-0.49790117,-9.041104,0.7044938,-0.3417723,0.029293908,-0.08908011,0.044606633,13.85962461,100.51890978,-6.208709716796875
1649236087264,170.32812,-7.0625,-82.71875,-15.900001,-47.362503,24.487501,-0.2309475,0.07959235,0.10209629,-10.238804,1.0163386,0.4201824,-0.020772044,0.08455287,-0.17057043,13.85962461,100.51890978,-6.208709716796875
1649236087367,171.35938,-6.046875,-83.703125,-15.8625,-46.95,24.768751,-0.06216526,0.31310827,-0.26871938,-9.448717,1.3180081,-0.20290859,0.0612509,-0.09014534,0.096803054,13.85962461,100.51890978,-6.208709716796875
1649236087472,172.1875,-5.40625,-84.5,-15.58125,-46.275,24.91875,0.1059227,0.30550855,-0.4153593,-9.76954,1.2940661,-0.15502456,-0.02290251,0.05366111,-0.18335323,13.85962461,100.51890978,-6.208709716796875
1649236087576,172.34375,-5.171875,-84.609375,-14.94375,-46.068752,24.112501,-0.299469,-0.0059542656,-0.6880255,-10.023325,0.75237787,-0.7248446,-0.0058587817,0.14740162,-0.18122277,13.85962461,100.51890978,-6.208709716796875
1649236087682,171.59375,-6.109375,-83.890625,-14.512501,-45.3375,24.13125,0.73680973,-0.15748072,-0.1444827,-8.954913,0.57999533,-0.39444473,0.08788172,-0.009187635,0.0019973118,13.85959481,100.51895985,-3.42962646484375
1649236087782,171.32812,-173.57812,-83.578125,-14.887501,-45.225002,24.393751,0.3998375,-0.20629752,-1.0219896,-9.252393,0.6422446,-1.3814543,0.07403369,-0.033687994,0.30878443,13.85959481,100.51895985,-3.42962646484375
1649236087887,171.84375,-174.29688,-84.203125,-16.612501,-44.456253,23.8125,-0.066259384,-0.11344969,0.27941915,-9.76954,0.7188591,-0.06404489,0.013315413,0.18788047,-0.28668085,13.85959481,100.51895985,-3.42962646484375
1649236087994,172.125,-174.42188,-84.25,-16.40625,-44.68125,23.643751,0.2149105,-0.28429824,-0.23721442,-9.295488,0.5943606,-0.7727286,0.09001219,0.050465416,0.2789579,13.85959481,100.51895985,-3.42962646484375
1649236088098,171.875,-173.5,-83.40625,-16.48125,-43.85625,22.6875,0.31818104,-0.09679997,-0.12613562,-9.568427,0.8002619,-0.46627077,0.011184947,-0.10505861,-0.08961273,13.85959481,100.51895985,-3.42962646484375
1649236088205,172.95312,-174.71875,-84.578125,-15.675,-43.10625,23.4375,0.045921326,0.15610743,0.13096073,-9.630676,1.0498575,-0.27473465,-0.0548595,0.08774857,0.0115844095,13.85959481,100.51895985,-3.42962646484375
1649236088307,172.71875,-174.28125,-84.0625,-14.118751,-44.081253,23.868752,-0.69672966,-0.1299541,0.5638962,-10.641628,0.7236475,0.089184016,0.077229396,0.033421688,0.035019536,13.85959481,100.51895985,-3.42962646484375
1649236088408,172.90625,-174.10938,-83.90625,-14.343751,-43.987503,24.45,0.6656933,0.38098407,-0.3704007,-8.99322,1.4041992,-0.705691,-0.018641578,-0.16471165,0.09999875,13.85959481,100.51895985,-3.42962646484375
1649236088519,172.71875,-174.20312,-83.765625,-14.343751,-44.475002,24.750002,-1.277298,-0.30068654,0.7702377,-11.168352,0.4938041,0.44891283,-0.017576344,0.18042384,-0.0011983871,13.85959481,100.51895985,-3.42962646484375
1649236088620,173.0625,-174.54688,-83.96875,-13.25625,-44.775,25.312502,0.87267494,-0.55976355,0.2750028,-8.887876,0.39324763,-0.24121583,0.12409965,0.017443191,0.17136936,13.85959481,100.51895985,-3.42962646484375
1649236088723,172.125,-173.1875,-82.859375,-14.025001,-44.25,26.00625,-0.48338413,-0.11658603,0.04487638,-10.502765,1.0690111,-0.107140526,0.067642294,-0.2147776,0.13728191,13.85958851,100.51900776,-8.766021728515625
1649236088828,173.09375,-174.4375,-84.015625,-14.400001,-44.98125,27.900002,1.0059834,0.27595222,0.37506413,-8.715493,1.3563153,0.074818805,-0.1837527,0.14207545,-0.25791955,13.85958851,100.51900776,-8.766021728515625
1649236088932,171.85938,-173.01562,-82.28125,-14.625001,-45.581253,26.94375,-0.44304276,-0.054683268,0.26927045,-10.253169,0.8194155,0.13227965,-0.04420717,0.014247492,-0.0789604,13.85958851,100.51900776,-8.766021728515625
1649236089037,172.32812,-172.5625,-82.21875,-14.531251,-45.24375,26.00625,0.058706284,-0.14349854,0.6213826,-9.673772,0.7188591,0.38187516,0.06551183,0.10692277,0.049932797,13.85958851,100.51900776,-8.766021728515625
1649236089143,171.59375,-172.46875,-82.125,-15.58125,-44.943752,25.931252,-0.56200695,-0.6138787,0.20844367,-10.42615,0.25917232,-0.09756372,0.09746882,0.06857438,0.20439158,13.85958851,100.51900776,-8.766021728515625
1649236089245,172.70312,-174.3125,-83.703125,-16.96875,-44.625,26.00625,0.39182281,0.008796811,0.3416952,-9.448717,1.0450691,0.22864626,-0.029293908,-0.20306005,0.021171506,13.85958851,100.51900776,-8.766021728515625
1649236089349,172.84375,-174.40625,-84.265625,-17.00625,-45.0,25.687502,0.10657215,0.46991527,0.56297433,-9.673772,1.5286977,0.91817635,-0.20079643,0.04940018,-0.20359266,13.85958851,100.51900776,-8.766021728515625
1649236089455,172.67188,-173.79688,-83.5,-15.1125,-46.050003,24.487501,0.086535454,0.08786321,0.8624944,-9.812635,0.7858967,1.0474633,-0.12516488,0.11650986,-0.40066078,13.85958851,100.51900776,-8.766021728515625
1649236089559,173.23438,-174.04688,-83.96875,-14.400001,-47.0625,23.8125,0.052700996,-0.35203993,0.6256946,-9.702502,0.31663316,0.9947908,0.045272402,-0.1274285,0.15539087,13.85958851,100.51900776,-8.766021728515625
1649236089665,173.32812,-174.95312,-84.9375,-14.962501,-45.7125,24.243752,-0.39409828,-0.2172355,0.19946277,-10.224439,0.53211135,0.7026982,0.045272402,-0.012383334,0.11384678,13.85958622,100.51906514,-9.4224853515625
1649236089765,173.95312,-176.51562,-86.453125,-15.093751,-46.143753,24.150002,0.086078644,-0.14204484,0.45175177,-9.764751,0.5943606,0.92775315,0.010119714,0.033421688,-0.07363423,13.85958622,100.51906514,-9.4224853515625
1649236089866,174.17188,-176.79688,-86.640625,-14.906251,-46.4625,23.41875,0.3239231,0.29470742,-0.06262553,-9.520543,1.0402806,0.61171854,-0.0548595,-0.12849373,0.041410934,13.85958622,100.51906514,-9.4224853515625
1649236089972,173.82812,-3.921875,-85.5,-14.681251,-45.9375,23.34375,-0.44792652,0.16094035,0.32931107,-10.406996,0.7858967,0.961272,-0.0612509,0.14953208,-0.2728328,13.85958622,100.51906514,-9.4224853515625
1649236090079,173.79688,-4.046875,-85.53125,-14.512501,-47.568752,23.75625,0.3389616,-0.24513727,-0.21919745,-9.506178,0.350152,0.2813187,0.010119714,0.04940018,0.06378083,13.85958622,100.51906514,-9.4224853515625
1649236090183,172.59375,-5.171875,-83.421875,-14.7375,-47.006252,23.71875,0.2628851,-0.35310465,-0.32314655,-9.53012,0.25917232,0.2621651,0.012250179,-0.041144624,0.12982528,13.85958622,100.51906514,-9.4224853515625
1649236090294,173.125,-4.28125,-83.90625,-14.418751,-46.6875,24.375002,0.009807587,0.13569361,-0.14173979,-9.740809,0.8050503,0.2908955,-0.027163442,-0.0177095,0.046737097,13.85958622,100.51906514,-9.4224853515625
1649236090396,173.07812,-4.328125,-84.203125,-14.625001,-46.350002,23.53125,0.25815678,0.39868844,-0.061500043,-9.520543,1.0929531,0.38187516,-0.06870753,0.062182978,-0.13648298,13.85958622,100.51906514,-9.4224853515625
1649236090500,172.78125,-4.671875,-83.953125,-15.39375,-46.95,23.15625,-0.3294735,-0.081917346,-0.24579835,-10.104729,0.6374562,0.089184016,0.02290251,0.05366111,0.13728191,13.85958622,100.51906514,-9.4224853515625
1649236090602,172.39062,-5.046875,-84.09375,-15.0375,-46.65,23.868752,-0.25529385,0.020556152,0.08828619,-10.018537,0.7380127,0.38187516,0.055924732,-0.044340324,0.006258244,13.85958622,100.51906514,-9.4224853515625
1649236090707,171.73438,-5.3125,-84.125,-15.168751,-46.537502,23.15625,0.022043228,0.023389697,-0.25923434,-9.750386,0.6901286,0.074818805,-0.056989968,0.10266183,-0.11304785,13.85957501,100.51909945,-8.06512451171875
1649236090812,172.39062,-4.625,-85.09375,-15.450001,-46.800003,23.4375,0.29287434,-0.029536247,0.12853588,-9.5253315,0.64703304,0.32441434,0.017576344,-0.08801488,0.041410934,13.85957501,100.51909945,-8.06512451171875
1649236090918,172.92188,-4.296875,-85.359375,-14.775001,-45.6375,23.4375,-0.3098879,-0.028428257,-0.11696612,-10.047267,0.57999533,0.11312603,0.0058587817,0.06431344,-0.0011983871,13.85957501,100.51909945,-8.06512451171875
1649236091024,173.17188,-3.875,-86.109375,-14.531251,-45.65625,23.1,-0.07744026,0.18481207,0.35208958,-9.922769,0.8002619,0.62608373,-0.038881004,0.023834588,-0.06724283,13.85957501,100.51909945,-8.06512451171875
1649236091127,173.75,-3.21875,-86.703125,-15.562501,-46.256252,22.48125,0.26921368,0.11108732,0.31113726,-9.659407,0.7906851,0.5781997,-0.018641578,0.013182258,0.05738943,13.85957501,100.51909945,-8.06512451171875
1649236091234,173.375,-3.703125,-86.28125,-16.556252,-46.443752,22.5,0.09209156,-0.076340735,0.16200641,-9.673772,0.6326678,0.439336,0.018641578,-0.034753226,0.095737815,13.85957501,100.51909945,-8.06512451171875
1649236091336,172.875,-4.0625,-85.71875,-18.431252,-46.612503,21.9375,-0.2957363,0.18005574,-0.14177875,-10.095152,0.9391256,0.18555063,-0.028228676,3.9946238E-4,-0.03422061,13.85957501,100.51909945,-8.06512451171875
1649236091443,172.53125,-4.28125,-84.96875,-18.768751,-46.537502,20.8125,-0.027532578,-0.1917189,0.27360156,-9.827001,0.46986207,0.52073884,-0.019706812,0.10905323,-0.09600413,13.85957501,100.51909945,-8.06512451171875
1649236091548,172.89062,-3.984375,-85.25,-19.3875,-46.85625,20.643751,0.15690422,-0.18634292,-0.20088097,-9.645041,0.55126494,-0.020949265,0.011184947,0.0035951615,0.118107714,13.85957501,100.51909945,-8.06512451171875
1649236091652,172.3125,-4.59375,-84.953125,-18.54375,-46.143753,21.431252,-0.2784176,0.28090543,-0.1986478,-10.166978,1.0690111,0.04129998,-0.070838,0.088813804,0.047802333,13.85957501,100.51909945,-8.06512451171875
1649236091751,172.75,-3.75,-85.4375,-17.90625,-45.65625,20.962502,0.79038906,0.28457087,0.36816797,-9.1033535,1.1791444,0.32920274,-0.023967743,0.08774857,0.18095645,13.8595712,100.51913572,-8.540924072265625
1649236091857,173.65625,-2.890625,-86.703125,-17.53125,-45.99375,20.19375,0.13124752,-0.16585833,-0.010558832,-9.568427,0.66139823,-0.13108255,0.08575126,0.057922047,-0.14074391,13.8595712,100.51913572,-8.540924072265625
1649236091964,171.76562,-4.625,-85.265625,-16.893751,-44.925003,20.550001,-0.31407547,-0.28294802,-0.51909626,-10.123882,0.6422446,-0.5859809,0.045272402,0.03768262,0.14793424,13.8595712,100.51913572,-8.540924072265625
1649236092066,169.3125,-6.40625,-83.59375,-16.63125,-45.43125,20.625,-0.03373623,0.37130135,0.43275705,-9.88925,1.2174516,0.45848963,-0.0047935485,-0.11251524,-0.14074391,13.8595712,100.51913572,-8.540924072265625
1649236092171,170.26562,-174.45312,-84.453125,-16.48125,-44.86875,20.98125,0.2997179,0.2977854,0.29076156,-9.587581,1.1121067,0.36272156,0.12516488,0.054726347,-0.042742476,13.8595712,100.51913572,-8.540924072265625
1649236092277,170.82812,-174.26562,-84.265625,-16.1625,-44.60625,22.25625,0.45956326,0.004107237,0.14867899,-9.367314,1.198298,0.37229836,0.012250179,-0.072036386,0.40359017,13.8595712,100.51913572,-8.540924072265625
1649236092380,171.14062,-174.59375,-84.59375,-17.79375,-44.175003,21.6,0.22966003,-0.025787354,0.029700778,-9.487024,1.22224,0.089184016,0.070838,0.15592349,-0.12902635,13.8595712,100.51913572,-8.540924072265625
1649236092486,171.48438,-5.421875,-84.578125,-16.85625,-43.706253,21.5625,-0.2758026,-0.47413278,-0.2257827,-10.047267,0.5177461,-0.2220622,0.07616416,-0.026231363,-0.017176883,13.8595712,100.51913572,-8.540924072265625
1649236092588,170.71875,-173.29688,-83.296875,-16.368752,-42.375,21.46875,0.29771423,-0.011092186,0.26836234,-9.5253315,0.86729956,0.12270284,0.034620073,0.014247492,-0.28028944,13.8595712,100.51913572,-8.540924072265625
1649236092689,170.5625,-172.67188,-82.671875,-15.4875,-42.43125,21.6375,-0.015586853,0.3257857,0.09792025,-9.515755,0.95827925,0.05566519,0.0058587817,-0.14553747,-0.09813459,13.85957027,100.51914956,-8.53912353515625
1649236092791,172.0625,-173.57812,-83.40625,-14.1,-43.7625,21.91875,-0.034519196,0.0321061,-0.22620685,-9.841366,0.45070848,-0.13108255,0.0580552,-0.16897258,-0.19613603,13.85957027,100.51914956,-8.53912353515625
1649236092893,172.60938,-173.95312,-83.921875,-13.181251,-43.6875,22.462502,0.20709038,0.08527678,-0.32733572,-9.635465,0.599149,-0.10235212,0.12623012,-0.2797568,0.20545682,13.85957027,100.51914956,-8.53912353515625
1649236092997,174.0,-175.28125,-85.265625,-14.437501,-42.61875,23.212502,0.539917,0.22542173,-0.08499205,-9.189545,1.1312603,0.36750996,0.22849248,-0.10292814,0.23102242,13.85957027,100.51914956,-8.53912353515625
1649236093099,176.04688,-3.046875,-86.9375,-15.8625,-42.318752,24.487501,0.013121605,-0.24405223,-0.55906487,-9.736021,0.5847838,-0.4854244,0.10066452,0.3434045,-0.15246147,13.85957027,100.51914956,-8.53912353515625
1649236093203,176.0,-3.515625,-86.078125,-15.20625,-42.35625,21.975,-0.24301815,-0.34397864,-0.4970502,-10.03769,0.17776948,-0.7344214,-0.045272402,0.14846686,-0.14713532,13.85957027,100.51914956,-8.53912353515625
1649236093308,175.35938,-5.515625,-83.453125,-15.056251,-42.375,21.54375,0.1075573,-0.15011704,-1.0437379,-9.635465,0.3693056,-1.3431472,-0.025032977,-0.32236615,0.20652205,13.85957027,100.51914956,-8.53912353515625
1649236093409,176.46875,-5.0,-84.9375,-15.6,-42.99375,21.5625,-0.24070549,0.05654651,-0.66648436,-9.965864,0.56084174,-0.9792285,-0.05912043,-0.029427063,-0.056590505,13.85957027,100.51914956,-8.53912353515625
1649236093515,177.70312,-176.32812,-86.21875,-14.94375,-43.125,21.46875,0.120905876,0.09247553,-0.40283507,-9.659407,0.66139823,-0.729633,-0.034620073,-0.072036386,9.320789E-4,13.85957027,100.51914956,-8.53912353515625
1649236093619,177.17188,-175.9375,-85.9375,-13.950001,-42.54375,21.712502,0.05552292,-0.08640349,-0.46523508,-9.726444,0.5033809,-0.85891986,0.011184947,-0.012383334,0.06058513,13.85957027,100.51914956,-8.53912353515625
1649236093720,177.25,-3.671875,-86.3125,-14.625001,-42.675003,21.31875,0.0383358,-0.20663106,-0.3110153,-9.764751,0.39324763,-0.8158242,0.007989247,-0.016644266,0.13302097,13.85957027,100.51914956,-8.53912353515625
1649236093824,176.98438,-176.3125,-85.109375,-15.675,-42.61875,21.13125,-0.16697502,0.04920602,-0.31313372,-9.88925,0.7428011,-0.9498995,-0.021837277,0.039813083,0.047802333,13.85957027,100.51914956,-8.53912353515625
1649236093926,177.23438,-176.57812,-84.671875,-15.3,-42.1875,21.0375,-0.07375431,0.11087763,-0.2769431,-9.855731,0.8098387,-0.9307459,-0.031424373,-0.010252868,-0.077895164,13.85957027,100.51914956,-8.53912353515625
1649236094028,177.875,-177.03125,-84.1875,-15.4125,-42.54375,20.60625,-0.14244747,0.041206956,-0.15705305,-9.91798,0.6901286,-0.9648633,0.015445879,0.14420593,-0.10239553,13.85957027,100.51914956,-8.53912353515625
1649236094131,177.15625,-176.3125,-83.65625,-14.00625,-42.768753,21.243752,-0.08922768,-0.10690811,-0.10490674,-9.822212,0.4938041,-0.88286185,0.012250179,-0.07523208,-0.0075897854,13.85957027,100.51914956,-8.53912353515625
1649236094236,176.23438,-175.625,-82.875,-14.175,-42.7125,21.5625,-0.4295845,-0.20924056,-0.2142843,-10.157401,0.39324763,-1.055843,-0.025032977,-0.06777545,0.13834713,13.85957027,100.51914956,-8.53912353515625
1649236094339,176.46875,-175.95312,-83.515625,-14.962501,-42.9375,21.31875,0.51904106,0.1838814,-0.18117201,-9.20391,0.8098387,-0.83018947,-0.056989968,-0.38414967,-0.22276686,13.85957027,100.51914956,-8.53912353515625
1649236094443,177.51562,-176.875,-83.71875,-14.306251,-43.331253,21.825,-0.09927654,0.19890857,-0.13630432,-9.539697,0.64703304,-0.11192893,-0.34992903,-0.40651956,-0.33142063,13.85957027,100.51914956,-8.53912353515625
1649236094547,177.95312,-177.34375,-84.25,-11.231251,-44.53125,20.868752,-0.3504057,-0.33138078,-0.1599647,-10.152613,-0.21547815,-0.24600422,-0.21038352,0.1143794,0.07869409,13.85957027,100.51914956,-8.53912353515625
1649236094651,176.625,-176.53125,-84.578125,-12.431251,-44.175003,19.893751,0.17290974,0.10462484,-0.15341882,-9.645041,0.29747957,-0.39444473,0.04101147,0.036617383,0.053128496,13.85957027,100.51914956,-8.53912353515625
1649236094753,176.73438,-177.42188,-86.515625,-12.543751,-44.5875,19.743752,-0.32347393,0.06156023,-0.05934073,-10.018537,0.26874915,-0.28909984,0.035685305,-0.06777545,0.05738943,13.85956808,100.5191641,-8.517486572265625
1649236094856,176.17188,-178.60938,-86.703125,-11.85,-44.175003,21.150002,0.043190002,-0.045514375,0.0685077,-9.812635,0.091578215,-0.18854338,0.016511112,0.13142313,-0.0789604,13.85956808,100.5191641,-8.517486572265625
1649236094959,175.3125,-177.92188,-85.9375,-11.700001,-44.175003,20.34375,-0.13402843,-0.056974813,-0.20313135,-9.898827,0.16819267,-0.52373165,0.05912043,-0.08375394,0.12982528,13.85956808,100.5191641,-8.517486572265625
1649236095069,175.64062,-177.82812,-86.296875,-12.543751,-44.193752,21.018751,0.03236103,0.06523827,-0.10888153,-9.740809,0.43634325,-0.31783026,0.017576344,-0.10186291,0.088281184,13.85956808,100.5191641,-8.517486572265625
1649236095171,176.79688,-178.89062,-88.03125,-12.712501,-44.362503,21.6375,0.022640228,0.1212365,0.11674595,-9.812635,0.4794389,-0.006584055,-5.326165E-4,0.036617383,-0.027829213,13.85956808,100.5191641,-8.517486572265625
1649236095277,177.46875,-179.32812,-87.890625,-12.58125,-43.8375,22.06875,-0.037164688,-0.06301248,-0.07281943,-9.812635,0.26396075,-0.25558102,0.0037283157,0.09413997,-0.07469947,13.85956808,100.5191641,-8.517486572265625
1649236095378,176.21875,-177.89062,-87.453125,-12.31875,-45.225002,23.643751,-0.33855247,-0.08404863,0.08528493,-10.1382475,0.25438392,-0.13108255,0.0484681,-0.05286219,0.041410934,13.85956808,100.5191641,-8.517486572265625
1649236095488,175.48438,-177.25,-87.171875,-12.168751,-45.393753,25.893751,0.3348179,0.19835603,-0.16008645,-9.472659,0.670975,-0.29388827,0.025032977,-0.03155753,0.07975932,13.85956808,100.5191641,-8.517486572265625
1649236095590,176.25,-177.98438,-87.46875,-12.525001,-45.24375,25.3875,0.20729733,0.12659144,0.10097664,-9.659407,0.6278794,-0.025737667,0.028228676,-0.009187635,-0.08748226,13.85956808,100.5191641,-8.517486572265625
1649236095695,177.0,-178.51562,-88.15625,-12.675,-44.79375,25.087502,0.037937164,-0.16961235,-0.017099418,-9.79827,0.22565351,-0.17896658,0.03994624,0.067509145,-0.054460037,13.85956741,100.51917395,-8.18011474609375
1649236095798,175.82812,-177.09375,-87.0,-12.843751,-44.98125,25.331251,0.0015010834,-0.27650023,-0.08440262,-9.850943,0.12988544,-0.24121583,0.0484681,-0.0017310036,0.016910573,13.85956741,100.51917395,-8.18011474609375
1649236095902,174.9375,-176.125,-86.125,-13.33125,-44.79375,25.48125,0.090394974,0.15546185,0.15070614,-9.745598,0.5847838,-0.011372458,0.04314194,-0.04327509,0.013714875,13.85956741,100.51917395,-8.18011474609375
1649236096008,176.57812,-177.54688,-87.5,-13.125001,-44.49375,25.650002,-0.121554375,-0.1548028,0.013733193,-9.908403,0.22565351,-0.16460137,0.0037283157,0.088813804,-0.053394806,13.85956741,100.51917395,-8.18011474609375
1649236096114,177.9375,-178.6875,-88.40625,-12.675,-43.875,26.118752,-0.10411358,-0.03135571,0.176062,-9.91798,0.38845924,0.012569559,0.055924732,-0.009187635,0.1436733,13.85956741,100.51917395,-8.18011474609375
1649236096222,176.9375,-177.39062,-87.359375,-13.031251,-43.443752,27.337502,0.08510399,-0.0053296685,-0.27677837,-9.702502,0.39803603,-0.4950012,0.02290251,0.03768262,-0.077895164,13.85956741,100.51917395,-8.18011474609375
1649236096326,177.45312,-177.85938,-87.625,-13.06875,-43.237503,26.7,0.0649395,-0.030345708,0.15857042,-9.601946,0.41240123,-0.073621705,0.026098209,0.012117025,0.090411656,13.85956741,100.51917395,-8.18011474609375
1649236096429,177.6875,-177.875,-87.71875,-13.837501,-43.5,27.075,-0.027635574,-0.029835403,0.10190158,-9.860519,0.39324763,-0.24121583,0.06870753,0.06431344,0.007323477,13.85956741,100.51917395,-8.18011474609375
1649236096534,177.45312,-177.3125,-86.890625,-14.137501,-43.237503,26.625002,-0.06271839,-0.13085079,-0.19128558,-9.841366,0.3309984,-0.4997896,0.03994624,0.019573657,-0.03422061,13.85956741,100.51917395,-8.18011474609375
1649236096645,177.75,-177.5,-87.28125,-13.968751,-42.956253,26.868752,-0.022463799,0.20762724,-0.0132841915,-9.721656,0.7284359,-0.1933318,0.046337638,-0.050731722,0.11278155,13.85956741,100.51917395,-8.18011474609375
1649236096752,177.8125,-177.34375,-87.21875,-13.743751,-42.206253,27.45,-3.3664703E-4,0.057190895,-0.07260737,-9.750386,0.52732295,-0.3321955,0.031424373,0.1207708,-0.09706936,13.85956756,100.51918517,-8.24920654296875
1649236096850,178.84375,-178.15625,-86.984375,-13.33125,-42.225002,26.868752,0.06561184,-0.15337372,0.14927125,-9.67856,0.43155485,-0.53330845,0.112382084,0.09094427,0.0435414,13.85956756,100.51918517,-8.24920654296875
1649236096958,177.28125,-176.25,-86.125,-13.70625,-42.018753,27.6,-0.25078583,-0.045693934,-0.13494617,-10.119094,0.3645172,-0.480636,0.019706812,-0.034753226,0.0030625449,13.85956756,100.51918517,-8.24920654296875
1649236097059,177.40625,-176.29688,-85.921875,-14.681251,-41.568752,27.712502,0.35676575,0.22644824,0.17706344,-9.41041,0.7140707,-0.14065935,0.012250179,0.0046603945,-0.0075897854,13.85956756,100.51918517,-8.24920654296875
1649236097166,179.09375,-177.51562,-86.78125,-14.94375,-40.96875,27.618752,-0.30550385,-0.14069897,0.048095793,-10.095152,0.350152,-0.38486794,0.038881004,0.030225987,0.049932797,13.85956756,100.51918517,-8.24920654296875
1649236097266,179.42188,-177.71875,-86.65625,-15.093751,-42.16875,28.35,0.20746613,0.14389205,-0.049726993,-9.568427,0.6901286,-0.41359833,0.03675054,-0.051796954,-0.0118507175,13.85956756,100.51918517,-8.24920654296875
1649236097367,178.15625,-176.45312,-86.03125,-15.806251,-41.287502,28.987501,-0.06079483,0.08831829,-0.00788185,-9.803059,0.65182143,-0.3705027,0.026098209,0.030225987,0.012649642,13.85956756,100.51918517,-8.24920654296875
1649236097475,179.09375,-177.21875,-86.859375,-14.6625,-40.48125,28.462502,-0.03234005,-0.058082163,-0.14812139,-9.783905,0.46986207,-0.56682724,0.07403369,0.03768262,-0.0661776,13.85956756,100.51918517,-8.24920654296875
1649236097571,178.73438,-176.57812,-85.96875,-14.887501,-40.893753,28.050001,-0.0016174316,-0.086612076,-0.34711382,-9.616311,0.52732295,-0.87328506,0.069772765,-0.11571094,0.1692389,13.85956756,100.51918517,-8.24920654296875
1649236097682,178.48438,-176.1875,-85.640625,-15.4125,-40.125,28.368752,-0.039777756,0.25493133,-0.21475208,-9.836577,0.83378077,-0.53330845,0.014380646,-6.657706E-4,-0.12050448,13.85956681,100.51919889,-8.274444580078125
1649236097778,179.0625,-176.51562,-85.5625,-15.50625,-41.287502,27.900002,-0.02494049,0.11370486,-0.18151945,-9.783905,0.6901286,-0.66738373,0.06657706,0.022769356,9.320789E-4,13.85956681,100.51919889,-8.274444580078125
1649236097886,180.07812,-176.98438,-85.21875,-15.656251,-40.425003,28.181252,-0.135046,0.084424496,-0.41620004,-9.91798,0.65182143,-0.9451111,0.084686026,-0.004926703,0.048867565,13.85956681,100.51919889,-8.274444580078125
1649236097988,178.48438,-175.32812,-83.9375,-15.1125,-41.1375,28.29375,-0.0019025803,0.16524726,-0.3958484,-9.807847,0.76195467,-1.0271125,0.07296846,-0.0145138,-0.024633514,13.85956681,100.51919889,-8.274444580078125
1649236098094,179.375,-175.96875,-84.375,-14.418751,-41.100002,28.9125,-0.17030048,0.23170233,-0.26771438,-9.879673,0.9151836,-0.9935937,0.13688244,-0.04540556,0.10106398,13.85956681,100.51919889,-8.274444580078125
1649236098200,180.32812,-176.26562,-83.765625,-14.83125,-40.59375,28.931252,0.009065628,0.13547969,-0.15055984,-9.807847,0.83378077,-0.83018947,0.112382084,0.07283531,-0.061916668,13.85956681,100.51919889,-8.274444580078125
1649236098307,180.39062,-176.0,-83.171875,-14.606251,-40.18125,29.812502,0.14927864,0.06818634,-0.032798707,-9.587581,0.8194155,-0.777517,0.12623012,-0.024100898,0.021171506,13.85956681,100.51919889,-8.274444580078125
1649236098412,180.5,-175.40625,-83.015625,-15.39375,-40.143753,29.737501,0.067108154,0.14277905,0.16587764,-9.697714,0.95827925,-0.6003461,0.15073048,-0.037948925,0.046737097,13.85956681,100.51919889,-8.274444580078125
1649236098516,180.01562,-174.4375,-82.46875,-14.231251,-40.48125,30.91875,-0.013807297,0.25119478,0.2435953,-9.79827,1.1360487,-0.46627077,0.14966524,0.0025299285,0.012649642,13.85956681,100.51919889,-8.274444580078125
1649236098623,181.5625,-175.14062,-82.953125,-14.793751,-39.91875,30.862501,-0.12542915,0.12698644,0.21577242,-9.812635,1.0785879,-0.38486794,0.15392618,-0.0145138,0.056324195,13.85956681,100.51919889,-8.274444580078125
1649236098727,181.92188,-174.57812,-83.15625,-14.343751,-39.768753,31.875002,-0.22610664,0.18878484,0.3929414,-9.985018,1.2413936,-0.15023616,0.17310037,-0.04540556,0.08402026,13.85956201,100.51921402,-8.023406982421875
1649236098826,181.71875,-173.6875,-82.859375,-13.950001,-39.9375,33.318752,0.021395683,0.10323596,0.55041397,-9.745598,1.1408371,0.14664486,0.1741656,-0.0145138,-0.05126434,13.85956201,100.51921402,-8.023406982421875
1649236098934,182.59375,-173.51562,-83.0625,-15.000001,-40.21875,33.6375,0.06830597,0.19599164,0.40087837,-9.659407,1.34195,0.11791443,0.180557,-0.06884068,0.053128496,13.85956201,100.51921402,-8.023406982421875
1649236099039,183.25,-173.07812,-83.0,-15.150001,-39.9,34.818752,-0.08288002,0.20733094,0.2237048,-9.779117,1.3515269,0.017357962,0.17523083,-0.069905914,0.010519176,13.85956201,100.51921402,-8.023406982421875
1649236099144,183.79688,-172.8125,-82.8125,-14.250001,-39.9,35.41875,-0.016034126,0.2832545,0.47145015,-9.764751,1.4760253,0.45370123,0.18162224,-0.1274285,-0.0118507175,13.85956201,100.51921402,-8.023406982421875
1649236099248,185.14062,-172.875,-82.875,-13.875001,-39.3375,36.9375,0.07079983,0.21847129,0.53795063,-9.692925,1.4903905,0.62608373,0.19547026,0.051530648,-0.028894445,13.85956201,100.51921402,-8.023406982421875
1649236099352,185.98438,-7.546875,-82.4375,-13.462501,-38.23125,37.96875,0.13213539,-0.16124308,0.14990187,-9.520543,1.0977415,0.14185645,0.21677493,0.03555215,-0.0033288533,13.85956201,100.51921402,-8.023406982421875
1649236099459,186.45312,-8.03125,-81.84375,-13.181251,-38.8875,39.2625,0.0718832,-0.13541889,-0.030144239,-9.707291,1.021127,-0.01616086,0.21784015,-0.02516613,-0.0022636203,13.85956201,100.51921402,-8.023406982421875
1649236099568,187.4375,-8.40625,-81.28125,-12.675,-38.643753,40.143753,0.3503704,-0.12260187,0.21916509,-9.4295635,1.0690111,0.24301147,0.19014409,0.014247492,-0.038481545,13.85956201,100.51921402,-8.023406982421875
1649236099664,189.96875,-7.234375,-82.625,-12.843751,-38.287502,41.04375,-0.13970566,0.048576713,0.015207,-9.822212,1.1887212,0.050876785,0.19973119,-0.026231363,0.025432438,13.85955038,100.51923287,-8.7547607421875
1649236099768,191.85938,-6.390625,-83.5,-13.8,-38.568752,41.831253,0.034220695,0.021222234,0.050376862,-9.755175,1.2174516,0.12270284,0.21570969,-0.079493016,0.00838871,13.85955038,100.51923287,-8.7547607421875
1649236099875,193.17188,-6.390625,-83.515625,-13.368751,-38.1375,43.143753,0.0054454803,0.12121928,0.10982875,-9.683349,1.2892777,0.18555063,0.21251398,-0.024100898,-0.042742476,13.85955038,100.51923287,-8.7547607421875
1649236099979,194.17188,-6.359375,-83.609375,-13.33125,-38.2125,44.831253,-0.13954163,-0.13549191,0.08219923,-9.965864,1.0737995,0.15143326,0.21997061,0.022769356,0.045671865,13.85955038,100.51923287,-8.7547607421875
1649236100085,195.25,-6.75,-83.203125,-13.012501,-37.331253,45.7125,-0.07470131,0.017690778,0.17046389,-9.79827,1.2126632,0.3196259,0.23168819,-0.077362545,0.004127778,13.85955038,100.51923287,-8.7547607421875
1649236100188,196.07812,-7.359375,-82.578125,-12.618751,-36.80625,46.537502,0.075333595,0.26965034,-0.1535556,-9.630676,1.447295,-0.020949265,0.21784015,-0.05712312,-0.050199106,13.85955038,100.51923287,-8.7547607421875
1649236100296,197.76562,-6.640625,-83.28125,-12.843751,-36.487503,48.16875,-0.118083954,0.05070567,0.58133197,-9.779117,1.2126632,0.9516952,0.20399213,-0.09653674,-0.060851436,13.85955038,100.51923287,-8.7547607421875
1649236100402,199.17188,-6.84375,-83.046875,-12.543751,-35.90625,49.74375,-0.14475536,0.33666468,0.7753103,-9.850943,1.6053122,1.359308,0.23381865,-0.122102335,0.18308693,13.85955038,100.51923287,-8.7547607421875
1649236100510,199.85938,-7.703125,-82.265625,-13.593751,-35.04375,49.74375,-0.02265644,-0.26727223,1.2608106,-9.980229,0.973243,1.9434932,0.23275341,0.111183695,-0.10559122,13.85955038,100.51923287,-8.7547607421875
1649236100613,201.07812,-7.375,-82.203125,-13.81875,-33.7125,50.325,1.1056108,0.013195038,1.2172346,-8.567052,1.5574282,2.0201077,0.24660145,-0.13914606,0.16178226,13.85955038,100.51923287,-8.7547607421875
1649236100718,201.96875,-8.25,-81.203125,-13.500001,-32.287502,50.343754,-0.5931177,-0.36860466,0.50529945,-10.262746,0.8050503,1.6849195,0.13581721,0.06005251,-0.3111812,13.85953261,100.51924713,-9.452972412109375
1649236100820,203.5625,-8.109375,-81.578125,-12.618751,-32.175003,50.8875,0.18889523,-0.8043988,1.133422,-9.688137,0.2112883,2.2691047,0.20079643,0.14207545,0.080824554,13.85953261,100.51924713,-9.452972412109375
1649236100926,203.75,-9.296875,-80.328125,-14.08125,-32.081253,51.281254,-0.46583652,-0.85324675,0.24776554,-10.234015,0.27832595,1.210269,0.0548595,0.34233928,0.045671865,13.85953261,100.51924713,-9.452972412109375
1649236101031,206.09375,-8.0,-81.578125,-15.39375,-31.218752,51.506252,0.26626587,-1.1260513,0.80383414,-9.774328,-0.21068975,1.2054806,0.10705592,0.15272778,-0.4496615,13.85953261,100.51924713,-9.452972412109375
1649236101133,207.3125,-7.546875,-82.25,-14.887501,-31.518751,50.643753,-0.23365974,0.12281114,-0.65782994,-9.937134,1.0163386,-0.05925649,0.07296846,-0.24886507,0.2342181,13.85953261,100.51924713,-9.452972412109375
1649236101239,207.54688,-8.203125,-81.796875,-15.093751,-32.287502,51.487503,0.28467464,-0.15748978,-0.5235667,-9.683349,0.5081693,0.060453594,0.08681649,0.13568406,-0.39746508,13.85953261,100.51924713,-9.452972412109375
1649236101346,209.4375,-173.5625,-83.265625,-13.950001,-31.85625,52.143753,-0.22648907,-0.42701626,-1.0014999,-10.004171,5.985504E-4,-0.52852005,0.11557778,0.017443191,0.05419373,13.85953261,100.51924713,-9.452972412109375
1649236101452,209.9375,-173.48438,-83.25,-13.9875,-32.0625,51.675003,0.32798958,-0.2773833,-0.8902248,-9.510966,0.39803603,-0.30825347,0.18268746,-0.11251524,0.17989123,13.85953261,100.51924713,-9.452972412109375
1649236101561,211.4375,-174.29688,-84.203125,-14.212501,-30.150002,52.518753,0.043704987,-0.11834681,-0.7817948,-9.841366,0.5847838,-0.27952304,0.09001219,0.016377958,-0.056590505,13.85953261,100.51924713,-9.452972412109375
1649236101664,212.53125,-174.95312,-84.65625,-14.118751,-29.812502,52.518753,0.11350918,-0.30956644,-0.009563386,-9.731233,0.350152,0.31004912,0.119838715,0.016377958,0.12662958,13.85951379,100.51925665,-9.663543701171875
1649236101770,212.70312,-174.20312,-84.046875,-14.906251,-29.625002,53.625004,-0.14628601,-0.08915949,-0.49494416,-9.994595,0.54647654,-0.27952304,0.12196918,0.016377958,-0.10559122,13.85951379,100.51925665,-9.663543701171875
1649236101875,213.39062,-173.875,-83.78125,-14.887501,-29.325,53.550003,0.14196968,-0.310162,0.04704696,-9.611523,0.28311434,0.2621651,0.12942581,-0.0059919357,0.07230269,13.85951379,100.51925665,-9.663543701171875
1649236101980,213.73438,-173.46875,-83.296875,-15.69375,-28.593752,53.737503,0.09967995,-0.09826988,-0.10326387,-9.659407,0.5177461,0.046088383,0.08575126,0.012117025,-0.022503048,13.85951379,100.51925665,-9.663543701171875
1649236102084,215.76562,-174.82812,-84.65625,-15.187501,-28.66875,53.68125,-0.33478355,-0.37480652,0.19999768,-10.119094,0.12988544,0.30526072,0.08149032,-0.010252868,0.038215235,13.85951379,100.51925665,-9.663543701171875
1649236102188,219.26562,-177.45312,-87.453125,-15.31875,-28.425001,54.3375,-0.2603178,0.047774374,-0.6546011,-10.00896,0.66618663,-0.3274071,-0.035685305,-0.24140844,0.21930484,13.85951379,100.51925665,-9.663543701171875
1649236102293,219.35938,-2.96875,-87.015625,-14.868751,-28.63125,54.187504,0.29641533,0.13536274,0.1282196,-9.53012,0.85293436,0.37708676,-0.012250179,0.10692277,-0.052329574,13.85951379,100.51925665,-9.663543701171875
1649236102409,221.54688,-1.234375,-88.75,-16.125,-28.743752,54.468754,-0.43095112,-0.26670957,-0.7032146,-10.248381,0.3405752,-0.7823054,0.025032977,0.04833495,-0.09706936,13.85951379,100.51925665,-9.663543701171875
1649236102508,220.15625,-3.0625,-86.921875,-16.59375,-28.218752,53.343754,-0.2459507,-0.20181167,-0.41444296,-10.004171,0.47465047,-0.6099229,0.16244803,0.0057256273,0.12876004,13.85951379,100.51925665,-9.663543701171875
1649236102610,219.6875,-3.421875,-86.515625,-19.03125,-28.425001,53.025,-0.2553358,-0.17916626,-0.5772665,-10.00896,0.6901286,-0.6099229,0.12409965,-0.25738692,0.28747976,13.85951379,100.51925665,-9.663543701171875
1649236102709,219.51562,-176.5625,-86.53125,-18.13125,-26.737501,52.893753,0.2534876,0.015025437,-0.21415874,-9.482236,0.9487024,-0.13108255,0.06657706,-0.1178414,-1.3315413E-4,13.8594956,100.5192647,-9.24420166015625
1649236102826,220.03125,-176.59375,-86.546875,-14.962501,-26.6625,54.787502,-0.29700947,0.12788618,-0.26045313,-10.03769,1.1695676,0.17058687,0.1741656,-0.10505861,0.22356579,13.8594956,100.5192647,-9.24420166015625
1649236102922,220.03125,-4.140625,-85.859375,-15.093751,-25.81875,55.331253,0.5779896,0.46344662,-0.84262735,-9.065046,1.8207904,-0.6434417,0.3201025,0.13142313,0.07549839,13.8594956,100.5192647,-9.24420166015625
1649236103027,219.5625,-5.265625,-84.71875,-14.512501,-24.50625,55.575,-0.044083595,0.043676376,0.44860518,-9.817424,1.2940661,0.16101007,0.021837277,0.0035951615,-0.053394806,13.8594956,100.5192647,-9.24420166015625
1649236103133,220.09375,-5.296875,-84.671875,-12.637501,-24.112501,56.156254,0.1559763,-0.08672154,0.49926177,-9.582792,0.9056068,0.5351041,-0.03248961,0.07283531,-0.38255182,13.8594956,100.5192647,-9.24420166015625
1649236103238,220.32812,-6.9375,-83.0625,-13.725,-24.4125,55.631252,-0.37526226,-0.62295645,-0.35060838,-10.061633,-0.004189853,-0.55725044,0.018641578,0.37110054,-0.33142063,13.8594956,100.5192647,-9.24420166015625
1649236103344,221.09375,-6.578125,-83.421875,-14.493751,-25.593752,55.612503,0.21408844,0.045934126,-0.74364555,-9.621099,0.27353755,-1.2330139,0.11025162,0.2272941,-0.45711812,13.8594956,100.5192647,-9.24420166015625
1649236103450,221.96875,-174.26562,-84.265625,-13.9875,-26.175001,55.0125,-0.22109318,0.3795858,-1.0045961,-9.975441,0.2208651,-1.5298948,0.03675054,-0.04647079,-0.2174407,13.8594956,100.5192647,-9.24420166015625
1649236103555,224.34375,-176.76562,-86.484375,-13.650001,-26.1375,54.206253,0.12373352,0.5259646,-0.32861614,-9.611523,0.38367084,-0.7104794,0.11770825,-0.25099552,0.09999875,13.8594956,100.5192647,-9.24420166015625
1649236103658,227.01562,-179.28125,-86.75,-12.95625,-25.7625,55.93125,0.20333672,0.17916545,-0.618624,-9.582792,0.22565351,-1.1372458,0.08788172,0.10905323,0.069106996,13.8594956,100.5192647,-9.24420166015625
1649236103758,229.07812,178.90625,-86.25,-13.1625,-25.29375,54.99375,0.39287758,-0.52827597,-0.5889611,-9.329007,-0.46447513,-1.3431472,0.038881004,0.008921326,0.047802333,13.85948248,100.51926795,-9.19244384765625
1649236103872,228.46875,179.875,-86.953125,-13.51875,-25.1625,55.7625,-0.24080276,-0.026965909,-0.4209562,-10.095152,0.10115502,-1.1180922,0.1422086,-0.15725502,0.1756303,13.85948248,100.51926795,-9.19244384765625
1649236103970,227.59375,-178.46875,-84.15625,-12.356251,-24.225,56.343754,0.46489334,0.056477055,-0.13254756,-9.238028,0.26396075,-0.8206126,0.03994624,-0.0145138,0.046737097,13.85948248,100.51926795,-9.19244384765625
1649236104074,228.79688,-179.35938,-82.828125,-12.525001,-25.0125,56.11875,-0.16839314,-0.35865796,-0.38612777,-9.946711,-0.25857377,-1.2856863,0.028228676,0.082422405,-0.02037258,13.85948248,100.51926795,-9.19244384765625
1649236104178,229.79688,-179.46875,-83.125,-12.39375,-24.750002,56.775,-0.031235695,-0.25668135,0.013254344,-9.803059,-0.05207389,-0.9744401,0.07296846,-0.05286219,0.10532492,13.85948248,100.51926795,-9.19244384765625
1649236104283,229.35938,-178.59375,-83.765625,-12.281251,-24.7875,57.037502,0.45721722,0.04165888,-0.096588254,-9.1272955,0.1921347,-0.9307459,0.016511112,-0.07523208,-0.04487294,13.85948248,100.51926795,-9.19244384765625
1649236104393,231.1875,179.96875,-83.546875,-12.468751,-24.900002,57.3375,-1.213954,-0.066966705,0.27748477,-10.790069,-0.17717093,-0.6003461,0.0644466,0.14207545,0.10532492,13.85948248,100.51926795,-9.19244384765625
1649236104500,231.9375,179.625,-84.90625,-12.7875,-25.837502,56.7,0.356246,-0.026333287,0.14056599,-9.333796,0.19692309,-0.705691,-0.0037283157,-0.08162348,0.036084767,13.85948248,100.51926795,-9.19244384765625
1649236104603,231.10938,-179.375,-84.9375,-12.168751,-25.25625,56.5125,-0.5090313,0.024484068,0.18974218,-10.286688,0.13467385,-0.40880993,0.02290251,-0.20945144,-0.064047135,13.85948248,100.51926795,-9.19244384765625
1649236104708,231.23438,-179.59375,-84.96875,-10.556251,-25.44375,56.60625,0.5341234,-0.20235907,0.26505703,-9.20391,-0.11432313,-0.24600422,-0.0644466,0.16764104,0.032889068,13.85946645,100.51927331,-8.5877685546875
1649236104816,230.5,-178.71875,-84.328125,-13.1625,-26.38125,56.531254,-0.17774487,-0.2213265,0.08865917,-9.927557,-0.19632454,-0.6194997,0.02290251,0.0014646954,-0.049133874,13.85946645,100.51927331,-8.5877685546875
1649236104913,231.32812,-179.4375,-85.6875,-12.39375,-26.868752,56.175003,-0.25919056,0.19879654,0.08152047,-9.994595,0.25917232,-0.3417723,-5.326165E-4,-0.25845218,0.12662958,13.85946645,100.51927331,-8.5877685546875
1649236105023,230.67188,-178.9375,-85.234375,-10.89375,-27.16875,56.925003,-0.06560421,0.43321997,0.45547774,-9.937134,0.7092823,0.25258827,-0.016511112,-0.19134249,9.320789E-4,13.85946645,100.51927331,-8.5877685546875
1649236105125,231.48438,-179.875,-85.296875,-9.993751,-26.531252,57.16875,0.024895668,-0.071544036,0.26507556,-9.688137,0.10594343,0.24301147,-0.027163442,0.11331416,-0.025698747,13.85946645,100.51927331,-8.5877685546875
1649236105228,231.32812,-179.64062,-86.28125,-9.95625,-26.812502,57.43125,-0.11116028,-0.38025013,0.38816676,-9.91798,-0.21068975,0.30526072,0.05379427,-0.077362545,0.042476166,13.85946645,100.51927331,-8.5877685546875
1649236105335,230.65625,-179.0625,-87.53125,-9.525001,-26.19375,57.99375,0.0015907288,0.2964934,0.35936388,-9.764751,0.65660983,0.58298814,-0.018641578,-0.14127652,0.19267403,13.85946645,100.51927331,-8.5877685546875
1649236105443,230.73438,-179.32812,-87.40625,-9.20625,-26.175001,58.10625,-0.39528847,-0.051603317,0.3705622,-10.238804,0.1921347,0.5590461,-0.0047935485,-0.03581846,-0.12370019,13.85946645,100.51927331,-8.5877685546875
1649236105545,231.42188,-179.85938,-88.53125,-8.53125,-25.95,58.237503,0.33463097,0.26418042,0.5809754,-9.305065,0.6997054,1.1336545,-0.007989247,-0.1402113,0.1756303,13.85946645,100.51927331,-8.5877685546875
1649236105649,229.26562,-2.515625,-86.65625,-8.418751,-25.575,58.912502,-0.2653303,-0.08469221,0.4191094,-10.052056,0.31663316,1.0522517,-0.028228676,0.14420593,-0.06724283,13.85946645,100.51927331,-8.5877685546875
1649236105750,229.92188,-1.5625,-86.34375,-8.55,-25.44375,58.275,0.03282833,-0.46867082,0.39865947,-9.67856,-0.12868834,0.89423436,-0.019706812,0.10053137,-0.0022636203,13.85944442,100.51928171,-7.770965576171875
1649236105854,229.07812,-2.53125,-85.1875,-8.475,-25.3875,58.143753,-0.10833645,-0.0016372502,0.035263777,-9.874885,0.3309984,0.5590461,-0.015445879,-0.093341045,0.059519894,13.85944442,100.51928171,-7.770965576171875
1649236105957,228.89062,-2.671875,-84.625,-9.13125,-25.331251,58.537502,0.06781483,0.21698543,0.22026497,-9.731233,0.6039374,0.89902276,-0.028228676,-0.04966649,-0.010785485,13.85944442,100.51928171,-7.770965576171875
1649236106063,230.4375,-0.75,-85.484375,-9.4125,-24.16875,58.237503,0.084552765,0.20583847,0.08685017,-9.640253,0.64703304,1.0283096,-0.017576344,-0.02197043,0.032889068,13.85944442,100.51928171,-7.770965576171875
1649236106171,230.14062,-0.984375,-85.640625,-8.681251,-24.35625,59.531254,-0.043481827,-0.06290391,0.13146007,-9.874885,0.3405752,0.8607155,-0.046337638,0.08135717,-0.04487294,13.85944442,100.51928171,-7.770965576171875
1649236106280,228.25,-2.875,-84.265625,-9.4125,-24.900002,58.48125,-0.06600857,-0.1102657,-0.23230034,-9.903615,0.22565351,0.32441434,-0.02290251,0.06324821,-0.092808425,13.85944442,100.51928171,-7.770965576171875
1649236106384,227.90625,-3.21875,-83.78125,-9.1125,-25.706251,59.04375,-0.1400528,0.098864555,-0.31620795,-9.91798,0.30705637,0.30526072,-0.0548595,-0.04966649,-0.053394806,13.85944442,100.51928171,-7.770965576171875
1649236106486,228.57812,-2.296875,-84.65625,-9.525001,-25.837502,58.125004,-0.1447277,0.37573078,-0.14375648,-9.91798,0.7140707,0.47764325,0.029293908,-0.18388586,0.13515145,13.85944442,100.51928171,-7.770965576171875
1649236106591,229.46875,-1.109375,-85.84375,-9.731251,-25.237501,58.162502,0.29876518,0.015907437,-0.063307464,-9.496601,0.31663316,0.58777654,-0.04740287,0.14846686,-0.10452599,13.85944442,100.51928171,-7.770965576171875
1649236106696,229.29688,-1.015625,-86.671875,-10.481251,-25.312502,57.468754,-0.21719265,-0.16288698,-0.17579928,-9.961076,0.15861586,0.31483752,-0.015445879,0.008921326,0.07762886,13.85942396,100.51928916,-8.125
1649236106800,227.39062,-3.078125,-85.46875,-9.8625,-25.087502,57.3375,0.16584492,-0.08002168,-0.017442614,-9.640253,0.2160767,0.52073884,-0.028228676,-0.0027962367,-0.05126434,13.85942396,100.51928916,-8.125
1649236106903,227.28125,-3.078125,-85.5,-9.450001,-25.5375,57.750004,0.055639267,0.056574613,0.18665105,-9.67856,0.43155485,0.7793127,-0.012250179,-0.063514516,0.13728191,13.85942396,100.51928916,-8.125
1649236107009,228.34375,-1.75,-86.859375,-9.3,-25.500002,57.787502,0.046448708,-0.013188511,0.3661633,-9.79827,0.4794389,0.961272,-0.019706812,0.021704122,-0.010785485,13.85942396,100.51928916,-8.125
1649236107112,228.73438,-1.1875,-87.234375,-10.012501,-25.875002,57.412502,0.17833519,-0.15203829,-0.1063627,-9.611523,0.26396075,0.49200845,-0.0644466,0.05685681,-0.053394806,13.85942396,100.51928916,-8.125
1649236107221,228.0,-1.890625,-85.96875,-10.762501,-25.44375,57.075,0.02807808,-0.19011739,-0.08116865,-9.759963,0.0676362,0.30526072,-0.052729033,0.08135717,-0.085351795,13.85942396,100.51928916,-8.125
1649236107326,227.21875,-2.578125,-84.234375,-9.95625,-26.85,56.60625,-0.0874691,0.04884319,-0.31492186,-9.879673,0.24001873,0.14185645,-0.05379427,-0.07416685,0.041410934,13.85942396,100.51928916,-8.125
1649236107426,227.59375,-1.953125,-85.40625,-10.556251,-26.8875,56.625004,-0.025997162,0.09935181,-0.18714994,-9.822212,0.27832595,0.24779987,-0.07190323,0.029160755,-0.02356828,13.85942396,100.51928916,-8.125
1649236107534,228.4375,-0.546875,-87.4375,-10.25625,-25.725,56.60625,-0.029605865,-0.10700316,-0.20639673,-9.764751,0.077213004,0.11312603,-0.04101147,-0.029427063,0.059519894,13.85942396,100.51928916,-8.125
1649236107639,227.96875,-0.6875,-87.859375,-10.59375,-26.775002,56.9625,0.07491493,0.06017205,-0.18124664,-9.721656,0.27353755,0.108337626,-0.08681649,0.012117025,-0.017176883,13.85942396,100.51928916,-8.125
1649236107752,226.9375,-1.4375,-87.890625,-10.96875,-26.85,56.643753,0.0026407242,0.10019565,-0.11038238,-9.774328,0.3549404,0.14664486,-0.0548595,-0.041144624,0.021171506,13.85941502,100.51929546,-8.3585205078125
1649236107852,227.10938,-0.859375,-88.625,-11.53125,-27.4125,57.300003,-0.026947021,0.09017789,-0.134103,-9.855731,0.3788824,0.11791443,-0.0644466,0.03555215,-0.010785485,13.85941502,100.51929546,-8.3585205078125
1649236107956,226.46875,-1.171875,-88.578125,-10.6875,-27.7875,57.075,-0.009275436,-0.1312513,-0.34324592,-9.855731,0.08200141,-0.19812019,-0.06551183,0.013182258,-0.033155378,13.85941502,100.51929546,-8.3585205078125
1649236108061,225.70312,-1.453125,-88.40625,-10.762501,-28.25625,56.41875,0.069945335,0.018431708,-0.4624825,-9.836577,0.27353755,-0.2172738,-0.113447316,-0.04327509,-0.06724283,13.85941502,100.51929546,-8.3585205078125
1649236108166,224.64062,-2.125,-87.765625,-10.59375,-28.781252,56.381252,-0.13486004,-0.049110696,-0.51077676,-9.922769,0.10594343,-0.55725044,-0.05059857,-0.03581846,-0.0118507175,13.85941502,100.51929546,-8.3585205078125
1649236108269,225.15625,-1.234375,-88.765625,-10.275001,-28.35,56.250004,-0.078746796,-0.09952786,-0.6183275,-9.894038,0.034117375,-0.7918822,-0.08575126,0.04194355,-0.02676398,13.85941502,100.51929546,-8.3585205078125
1649236108372,224.90625,-179.0625,-88.375,-10.556251,-29.38125,55.875004,0.020730972,-0.08543786,-0.7572357,-9.712079,-0.05207389,-1.0702082,-0.10279499,0.03129122,-0.02356828,13.85941502,100.51929546,-8.3585205078125
1649236108476,224.51562,-179.125,-87.359375,-10.387501,-29.8875,55.575,-0.1685791,-0.3343842,-0.74351746,-10.018537,-0.39264908,-1.3431472,-0.10172975,0.06537867,-0.04061201,13.85941502,100.51929546,-8.3585205078125
1649236108584,224.5625,-179.46875,-86.234375,-11.15625,-30.487501,55.218754,-0.12604332,-0.24725638,-0.5681948,-9.922769,-0.24899697,-1.3383588,-0.11451255,0.06644391,0.069106996,13.85941502,100.51929546,-8.3585205078125
1649236108689,224.125,-179.59375,-84.328125,-11.15625,-29.56875,55.256252,0.012304306,-0.45162863,-0.7489544,-9.884461,-0.49320555,-1.8267759,-0.113447316,-0.0145138,0.032889068,13.85940593,100.51930321,-8.39996337890625
1649236108792,224.375,179.48438,-83.59375,-10.21875,-31.425001,55.55625,-0.015234947,-0.07692994,-0.17166173,-9.76954,-0.032920275,-1.1947067,-0.16564374,-0.07523208,0.07975932,13.85940593,100.51930321,-8.39996337890625
1649236108894,223.85938,179.5625,-82.953125,-10.181251,-31.331251,54.54375,0.039021492,-0.43528563,-0.17016768,-9.870096,-0.46447513,-1.2282255,-0.1645785,0.016377958,-0.019307349,13.85940593,100.51930321,-8.39996337890625
1649236109001,225.01562,177.85938,-80.65625,-9.712501,-31.0125,54.3375,0.01231575,-0.5170551,-0.3595962,-9.793482,-0.34955344,-1.1803415,-0.09427312,-0.28934392,0.53461385,13.85940593,100.51930321,-8.39996337890625
1649236109103,223.45312,178.67188,-81.65625,-10.9125,-31.893751,54.975002,0.530241,-0.5349112,-0.3603719,-9.357738,-0.36391866,-1.2856863,-0.25725377,0.21344607,-0.22702779,13.85940593,100.51930321,-8.39996337890625
1649236109207,222.40625,178.54688,-82.625,-10.425,-33.075,53.362503,0.073078156,-0.78311026,-0.01808405,-9.879673,-0.7230489,-1.1324574,-0.29134125,0.06324821,0.023301972,13.85940593,100.51930321,-8.39996337890625
1649236109311,221.84375,178.78125,-83.65625,-10.2375,-33.862503,53.062504,-0.09262371,-0.13907184,-0.043744564,-9.941922,-0.14305355,-1.0319009,-0.2934717,-0.16897258,9.320789E-4,13.85940593,100.51930321,-8.39996337890625
1649236109419,220.60938,179.14062,-83.375,-7.89375,-35.550003,53.475002,0.09397888,-0.0030500107,0.02159983,-9.860519,0.024540568,-0.801459,-0.2679061,-0.077362545,0.088281184,13.85940593,100.51930321,-8.39996337890625
1649236109524,218.78125,179.0,-82.421875,-7.74375,-37.143753,53.2125,0.1716528,-0.41266826,-0.17349297,-9.755175,-0.40222588,-1.151611,-0.2742975,0.20705467,-0.08002563,13.85940593,100.51930321,-8.39996337890625
1649236109625,216.84375,179.04688,-83.796875,-8.94375,-38.4,52.143753,-0.29503918,-0.68697155,-0.18490934,-10.032902,-0.81881696,-1.2808979,-0.30412403,0.030225987,0.046737097,13.85940593,100.51930321,-8.39996337890625
1649236109727,214.64062,179.9375,-85.09375,-9.918751,-39.131252,51.675003,0.13845825,-0.54856,-0.1942221,-9.879673,-0.770933,-1.352724,-0.34034196,0.06324821,-0.09813459,13.85940193,100.51931788,-10.327728271484375
1649236109831,214.125,178.76562,-83.96875,-10.125,-40.237503,50.775,0.27818775,-0.3777244,-0.16903567,-9.611523,-0.5746084,-1.2952632,-0.3169068,-0.14234176,0.12343387,13.85940193,100.51931788,-10.327728271484375
1649236109936,214.09375,177.60938,-82.4375,-9.50625,-41.737503,50.11875,0.084677696,-0.63371646,-0.18728805,-9.702502,-0.8379706,-1.4341269,-0.37336418,0.18681525,-0.022503048,13.85940193,100.51931788,-10.327728271484375
1649236110040,211.57812,177.84375,-82.140625,-10.293751,-42.61875,49.218754,-0.105311394,-0.9331285,-0.056498647,-9.91798,-1.2886791,-1.4628572,-0.3509943,0.054726347,0.041410934,13.85940193,100.51931788,-10.327728271484375
1649236110146,210.17188,177.34375,-82.140625,-10.762501,-43.631252,47.475002,0.63021374,-0.6234404,0.49972284,-9.218275,-0.80445176,-0.777517,-0.30838495,-0.1210371,0.40678588,13.85940193,100.51931788,-10.327728271484375
1649236110251,209.25,176.6875,-81.984375,-11.8125,-43.5,46.65,0.34704018,-0.6397344,-0.3233596,-9.726444,-0.81402856,-1.5777789,-0.5352796,0.074965775,-0.24407151,13.85940193,100.51931788,-10.327728271484375
1649236110352,209.6875,174.28125,-80.140625,-10.44375,-44.625,44.643753,-0.024074554,-0.7016795,0.6015573,-9.860519,-1.0965444,-0.83497787,-0.47349608,0.08455287,-0.056590505,13.85940193,100.51931788,-10.327728271484375
1649236110456,206.51562,175.90625,-81.453125,-11.025001,-46.068752,41.8875,0.030853271,-0.8198869,0.122706294,-9.79827,-1.3317747,-1.4772224,-0.43834338,0.19427188,0.14260808,13.85940193,100.51931788,-10.327728271484375
1649236110564,203.20312,176.59375,-81.125,-12.13125,-47.4,39.825,-0.0073862076,-0.55115825,0.73594785,-9.827001,-0.92416185,-0.7966706,-0.3776251,0.028095521,0.104259685,13.85940193,100.51931788,-10.327728271484375
1649236110667,199.96875,176.23438,-80.375,-12.0,-48.018753,37.8375,0.24305058,-0.16274706,0.46220195,-9.53012,-0.49320555,-0.9744401,-0.31264588,0.008921326,0.056324195,13.85939233,100.51933979,-10.980926513671875
1649236110768,197.20312,176.96875,-79.875,-11.75625,-49.050003,37.631252,-0.03209114,-0.031378925,0.40775287,-9.850943,-0.320823,-0.85891986,-0.32649392,0.019573657,0.01904104,13.85939233,100.51933979,-10.980926513671875
1649236110870,194.21875,176.75,-81.125,-11.681251,-48.975002,35.550003,0.09016991,0.09287479,0.5881413,-9.659407,0.019752163,-0.57161564,-0.4287563,-0.047536023,0.07017223,13.85939233,100.51933979,-10.980926513671875
1649236110979,191.0,177.59375,-81.234375,-10.9125,-50.925003,34.78125,0.26228237,-0.24806063,0.37457716,-9.664195,-0.33518824,-0.6051345,-0.34034196,0.20385897,-0.22170162,13.85939233,100.51933979,-10.980926513671875
1649236111083,189.20312,177.82812,-81.140625,-11.56875,-51.975002,33.393753,-0.69632053,-0.3295189,0.18964899,-10.603321,-0.48841715,-1.3144168,-0.21570969,0.04194355,0.056324195,13.85939233,100.51933979,-10.980926513671875
1649236111188,185.98438,178.57812,-81.34375,-11.625,-52.818752,32.90625,0.51203537,0.23929611,0.1813389,-9.309854,0.05327099,-1.1133038,-0.23168819,-0.0038614697,-0.15352671,13.85939233,100.51933979,-10.980926513671875
1649236111292,184.65625,178.39062,-82.0625,-10.368751,-53.437504,32.15625,-0.35403538,0.39435264,0.14115691,-10.354323,0.16340427,-0.9648633,-0.21890539,-0.06031882,-0.09067796,13.85939233,100.51933979,-10.980926513671875
1649236111399,184.35938,177.35938,-83.265625,-10.106251,-55.29375,31.425001,0.38899517,0.43502274,0.30667573,-9.333796,0.3645172,-0.8062474,-0.17523083,0.007856093,0.12449911,13.85939233,100.51933979,-10.980926513671875
1649236111504,182.29688,177.82812,-83.6875,-10.51875,-56.268753,31.237501,0.12801838,0.097269565,0.2865615,-9.707291,5.985504E-4,-0.8158242,-0.10279499,0.03768262,-0.1886794,13.85939233,100.51933979,-10.980926513671875
1649236111607,180.89062,178.04688,-83.515625,-9.168751,-56.4,30.675001,-0.3363514,0.17071582,-0.048722267,-9.999383,0.02932897,-1.2234371,-0.06551183,0.019573657,-0.032090146,13.85939233,100.51933979,-10.980926513671875
1649236111713,177.92188,179.75,-84.171875,-9.806251,-56.943752,29.94375,-0.12855339,0.3953575,0.23892522,-9.965864,0.20649989,-0.8206126,-0.07829463,3.9946238E-4,-0.17802706,13.85938433,100.5193634,-11.280487060546875
1649236111819,177.01562,179.8125,-84.0625,-9.168751,-58.275,28.893751,-0.22991467,0.7950317,0.65142465,-10.042479,0.66618663,-0.2220622,0.0069240145,-0.12849373,-0.0789604,13.85938433,100.5193634,-11.280487060546875
1649236111923,177.01562,179.46875,-84.015625,-8.681251,-59.100002,28.406252,0.71140766,1.1180649,1.0704094,-9.050681,1.1647792,0.6500258,0.069772765,-0.25525647,-0.035285845,13.85938433,100.5193634,-11.280487060546875
1649236112028,174.9375,-179.3125,-85.140625,-6.6562505,-59.68125,28.312502,-0.08471775,0.8007167,0.7034626,-9.870096,1.0163386,0.61171854,0.14327385,0.00998656,0.12876004,13.85938433,100.5193634,-11.280487060546875
1649236112135,174.64062,-179.25,-86.390625,-7.425,-58.987503,29.550001,-0.27159405,-0.062381238,0.6388159,-10.032902,0.4938041,0.46327803,0.04740287,0.16018441,0.24806614,13.85938433,100.5193634,-11.280487060546875
1649236112233,175.10938,-179.40625,-87.46875,-9.28125,-58.500004,28.29375,-0.6395817,-0.8347962,0.9287559,-10.378265,-0.14784196,0.94690675,0.014380646,-0.007057169,0.3332848,13.85938433,100.5193634,-11.280487060546875
1649236112343,175.875,-179.10938,-88.109375,-10.2375,-58.500004,27.075,0.664484,-0.3588361,0.39790347,-9.132084,0.5129577,0.5542577,0.034620073,-0.085884415,0.055258963,13.85938433,100.5193634,-11.280487060546875
1649236112445,175.07812,-177.89062,-86.8125,-10.6125,-57.881252,25.7625,0.17065048,0.19808769,0.22022669,-9.592369,0.943914,0.44891283,-0.07829463,0.08135717,-0.12050448,13.85938433,100.5193634,-11.280487060546875
1649236112549,173.60938,-176.32812,-85.09375,-9.806251,-57.562504,23.8875,-0.007923126,0.50191,0.9194305,-9.664195,1.0307038,1.2389994,-0.091077425,0.05259588,-0.32183352,13.85938433,100.5193634,-11.280487060546875
1649236112648,172.8125,-175.21875,-84.359375,-8.3625,-56.2125,21.768751,-0.63522243,-0.11907962,0.46934807,-10.324995,0.3549404,0.89423436,0.023967743,0.032356452,0.22463101,13.85938433,100.5193634,-11.280487060546875
1649236112760,173.01562,-175.46875,-84.5625,-8.83125,-54.468754,21.09375,0.07017708,-0.08477396,0.5308075,-9.716867,0.66618663,1.1001357,0.091077425,-0.040079392,0.14899947,13.85937989,100.51940074,-11.548583984375
1649236112857,173.4375,-176.57812,-85.390625,-8.981251,-54.15,21.0375,0.5862179,-0.1272003,0.0909946,-9.227852,0.694917,0.664391,-0.023967743,0.047269717,-0.039546777,13.85937989,100.51940074,-11.548583984375
1649236112960,173.90625,-177.34375,-85.5625,-9.13125,-52.237503,22.3875,0.16468525,0.07753909,0.55665123,-9.55885,0.87208796,1.2916719,-0.023967743,-0.07097115,0.0019973118,13.85937989,100.51940074,-11.548583984375
1649236113063,172.98438,-4.25,-85.75,-9.13125,-52.987503,20.75625,-0.29588032,0.17477375,0.66017973,-10.104729,0.9684546,1.5652094,-0.017576344,-0.040079392,0.013714875,13.85937989,100.51940074,-11.548583984375
1649236113169,173.0,-4.3125,-84.90625,-8.75625,-51.412502,19.6875,-0.27778435,0.09490615,0.44580108,-10.042479,1.0163386,1.4215573,0.009054481,-0.03901416,0.044606633,13.85937989,100.51940074,-11.548583984375
1649236113268,173.125,-3.9375,-84.265625,-9.50625,-50.906254,19.48125,0.24198055,0.07228094,0.016492128,-9.5013895,1.021127,1.0761937,-0.020772044,-0.016644266,-0.05872097,13.85937989,100.51940074,-11.548583984375
1649236113372,173.21875,-3.71875,-84.203125,-8.19375,-50.175003,20.0625,0.19585514,-0.39399904,-0.3821892,-9.554062,0.43155485,0.5686229,-0.07935986,0.06324821,-0.12370019,13.85937989,100.51940074,-11.548583984375
1649236113477,171.82812,-5.1875,-81.25,-8.19375,-49.537502,20.25,0.03934288,-0.14354348,-0.1115908,-9.716867,0.5895722,0.8415619,0.028228676,-0.063514516,0.07123746,13.85937989,100.51940074,-11.548583984375
1649236113583,171.73438,-5.390625,-81.171875,-7.89375,-49.575,20.60625,-0.021621704,0.3824225,0.006705463,-9.898827,1.2030864,0.961272,0.031424373,-0.0059919357,-0.092808425,13.85937989,100.51940074,-11.548583984375
1649236113687,172.5,-4.171875,-82.890625,-7.93125,-48.525,19.706251,-0.8595886,0.1515832,-0.48749387,-10.63684,0.89603,0.39624038,-0.04740287,0.047269717,-0.09813459,13.85937662,100.5194525,-12.94915771484375
1649236113786,172.89062,-3.703125,-83.5,-7.1625004,-48.506252,20.1,0.10288334,0.050878346,-0.961914,-9.803059,0.6853402,-0.3752911,0.016511112,0.04087832,-0.150331,13.85937662,100.5194525,-12.94915771484375
1649236113889,171.875,-5.03125,-82.65625,-6.8812504,-48.131252,20.4375,0.008361816,-0.10555819,-0.9836251,-9.67856,0.3693056,-0.6099229,-0.013315413,0.08029194,-0.14287437,13.85937662,100.5194525,-12.94915771484375
1649236113992,172.20312,-4.640625,-83.03125,-5.64375,-47.04375,20.19375,0.13977242,0.06044981,-1.1161329,-9.635465,0.4842273,-0.8924387,-0.0015978495,-0.09227581,0.08934642,13.85937662,100.5194525,-12.94915771484375
1649236114094,172.70312,-4.0625,-83.609375,-4.65,-45.9375,20.400002,0.2694311,0.21171314,-0.6683616,-9.458294,0.7954735,-0.56682724,-0.015445879,0.0046603945,-0.029959679,13.85937662,100.5194525,-12.94915771484375
1649236114199,173.54688,-3.265625,-84.34375,-3.7500002,-44.737503,20.25,-0.76743984,-0.1924929,0.6257385,-10.837953,0.45070848,0.81283146,-0.069772765,0.07709624,0.09147689,13.85937662,100.5194525,-12.94915771484375
1649236114300,173.71875,-3.03125,-84.578125,-3.99375,-43.0125,20.475,-2.54138,0.3318699,0.2228664,-12.2319765,0.8912416,0.16579847,-0.019706812,-0.13595037,0.07656363,13.85937662,100.5194525,-12.94915771484375
1649236114404,173.0,-3.734375,-85.765625,-4.4812503,-40.2,20.00625,1.0427761,0.88532484,-0.6854021,-8.744224,1.543063,-0.8206126,-0.016511112,-0.17003782,-0.26111525,13.85937662,100.5194525,-12.94915771484375
1649236114508,172.85938,-176.26562,-86.234375,-3.6000001,-38.11875,19.125,-1.976738,0.9233093,0.026150469,-11.44608,1.0929531,0.060453594,0.027163442,-0.05392742,-0.0022636203,13.85937662,100.5194525,-12.94915771484375
1649236114611,172.73438,-175.96875,-85.859375,-2.4562502,-36.600002,16.40625,1.3855057,0.28997123,-0.65604043,-8.409035,0.57999533,-0.9403227,-0.09427312,0.35618728,-0.150331,13.85937662,100.5194525,-12.94915771484375
1649236114715,173.23438,-176.34375,-86.3125,2.4750001,-37.0125,15.69375,-1.0083828,-2.2283602,-0.26324734,-10.359112,-1.8201919,-0.85413146,0.016511112,0.062182978,0.7604432,13.85937335,100.51952399,-13.99664306640625
1649236114818,174.82812,-2.40625,-87.59375,3.0,-36.768753,19.5,1.7746325,-0.4571725,-0.6579589,-8.015787,0.75716627,-0.7679402,0.15925233,-0.09014534,-0.08748226,13.85937335,100.51952399,-13.99664306640625
1649236114922,174.54688,-177.82812,-87.5,1.5562501,-39.05625,22.81875,-0.4043646,1.8811103,0.03479692,-10.061633,3.229778,0.21906945,-0.010119714,-0.04860126,0.118107714,13.85937335,100.51952399,-13.99664306640625
1649236115025,172.04688,-175.6875,-85.578125,-0.63750005,-40.66875,21.993752,-2.21914,1.3016593,1.1777911,-12.375628,2.405574,0.8655039,-0.060185667,0.2624468,-0.65099055,13.85937335,100.51952399,-13.99664306640625
1649236115127,169.89062,-173.0625,-83.046875,0.35625002,-41.568752,21.09375,0.57129383,-0.5425707,1.1108851,-8.81605,0.24480712,0.62129533,-0.1645785,0.027030287,0.15858656,13.85937335,100.51952399,-13.99664306640625
1649236115232,170.70312,-7.171875,-82.828125,-0.975,-39.9,19.875,-1.7201233,-2.1076105,-1.9155345,-11.858481,-0.91458505,-2.2870612,0.014380646,-0.17855969,0.5111787,13.85937335,100.51952399,-13.99664306640625
1649236115332,172.57812,-174.90625,-84.859375,-0.99375004,-39.018753,19.425001,0.7113552,0.29071772,0.89158285,-9.002797,1.4041992,0.17058687,0.1390129,0.0856181,-0.25472385,13.85937335,100.51952399,-13.99664306640625
1649236115439,172.01562,-175.29688,-84.90625,-1.29375,-41.34375,22.48125,2.789033,0.31588894,0.38015273,-7.273585,1.4856021,0.6452374,-0.322233,-0.04647079,-0.3047898,13.85937335,100.51952399,-13.99664306640625
1649236115547,171.09375,-174.1875,-83.578125,1.2750001,-44.5125,21.768751,-4.4985113,-0.24670017,0.1935997,-13.38658,0.0053869537,-0.54767364,0.1773613,-0.107189074,0.20652205,13.85937335,100.51952399,-13.99664306640625
1649236115653,170.15625,-173.26562,-83.109375,2.9625,-46.256252,23.1,-1.6278744,0.30839026,1.8582222,-11.834539,0.9923966,1.4550761,-0.031424373,0.18468477,-0.37722564,13.85937335,100.51952399,-13.99664306640625
1649236115762,170.875,-174.82812,-84.75,4.03125,-49.0125,25.29375,-2.3032131,-0.38309944,1.8759282,-10.267534,-0.13347675,1.4024036,0.09214266,-0.26910448,0.41956866,13.8593695,100.51960063,-14.844940185546875
1649236115869,171.92188,-175.96875,-85.734375,2.4562502,-50.850002,28.9125,0.5448742,0.8395447,0.51289207,-10.1143055,1.6531962,1.4311341,0.04101147,-0.56097835,0.09147689,13.8593695,100.51960063,-14.844940185546875
1649236115968,170.625,-176.17188,-86.140625,3.3375,-51.15,29.5125,2.3517923,0.49746042,1.6317675,-8.255806,1.4425066,2.4127567,-0.1709699,0.16338012,-0.5817504,13.8593695,100.51960063,-14.844940185546875
1649236116071,170.73438,-3.359375,-86.640625,7.2562504,-51.600002,34.068752,-1.536808,-1.5943711,-0.7688243,-11.407773,-0.92895025,-0.57161564,0.035685305,0.62569124,0.31198013,13.8593695,100.51960063,-14.844940185546875
1649236116177,170.3125,-4.5625,-84.734375,0.69375,-52.443752,38.68125,1.1347799,-0.022685826,1.243838,-9.050681,0.8050503,1.2970588,-0.007989247,-0.27762637,-0.4986622,13.8593695,100.51960063,-14.844940185546875
1649236116277,171.20312,-3.671875,-85.28125,-0.7875,-53.943752,36.75,-3.0805292,0.9261727,-0.8153088,-12.69705,1.6005238,-0.56682724,-0.07829463,-0.6334142,-0.02356828,13.8593695,100.51960063,-14.844940185546875
1649236116388,171.79688,-3.828125,-86.15625,-0.26250002,-56.850002,34.875,2.9118905,0.43455246,0.57908547,-6.928221,0.9247604,1.7040731,-0.105990686,-0.107189074,-0.29094177,13.8593695,100.51960063,-14.844940185546875
1649236116487,171.29688,-176.125,-86.125,0.50625,-56.925003,32.8875,-0.045823097,-0.39534962,-0.41754058,-10.143036,-0.272939,0.3196259,0.19227456,0.31251273,0.010519176,13.8593695,100.51960063,-14.844940185546875
1649236116590,173.15625,-2.53125,-87.015625,-0.5625,-56.68125,32.4,0.64215946,-0.8451723,-0.7041139,-8.911818,-0.58418524,-0.38486794,-0.03248961,0.5756253,-0.022503048,13.8593695,100.51960063,-14.844940185546875
1649236116699,172.125,-2.640625,-83.484375,0.056250002,-57.393753,31.425001,-0.8333359,-0.384266,-1.4236275,-10.63684,-0.31603462,-1.3000516,-0.031424373,-0.24993029,-0.1886794,13.85935368,100.51968263,-25.2200927734375
1649236116805,174.0625,-1.1875,-85.6875,1.8937501,-58.312504,29.362501,-0.24551582,0.5206475,-0.24857755,-9.985018,0.54647654,0.32441434,-0.14540431,-0.40438908,-0.013981183,13.85935368,100.51968263,-25.2200927734375
1649236116911,173.32812,-2.171875,-87.5,3.0937502,-58.2,26.437502,0.32074165,0.7635523,-0.30211455,-9.496601,0.694917,0.50637364,0.0037283157,-0.34899697,-0.11304785,13.85935368,100.51968263,-25.2200927734375
1649236117018,175.04688,-0.21875,-89.140625,3.2812502,-58.2,24.2625,0.12496281,0.20194633,-0.765484,-9.578004,0.14425065,0.21428105,0.037815772,0.2209027,0.028628137,13.85935368,100.51968263,-25.2200927734375
1649236117121,174.10938,-0.1875,-86.296875,2.30625,-57.6375,23.831251,-0.47044277,-0.26205015,-0.58948594,-10.286688,-0.29209262,0.04129998,0.077229396,0.42649266,0.080824554,13.85935368,100.51968263,-25.2200927734375
1649236117229,174.46875,0.453125,-84.6875,1.5,-57.3375,22.35,0.39406586,-0.41320014,-0.41131154,-9.276335,-0.29688102,-0.31304187,0.038881004,0.17616291,0.15112993,13.85935368,100.51968263,-25.2200927734375
1649236117328,174.53125,0.234375,-84.0625,0.90000004,-55.55625,21.5625,-0.07213688,0.13423121,-0.41232246,-9.937134,0.19692309,-0.4902128,0.0516638,-0.029427063,0.041410934,13.85935368,100.51968263,-25.2200927734375
1649236117443,174.375,-0.25,-86.375,-1.06875,-55.425003,21.46875,1.0018206,0.46492422,0.23226903,-8.863934,0.6997054,0.22864626,-0.03994624,-0.07310162,-0.10452599,13.85935368,100.51968263,-25.2200927734375
1649236117541,173.5625,-1.171875,-87.421875,-2.2875001,-54.16875,21.28125,-0.53038883,0.029657573,-0.28900498,-10.354323,0.29747957,-0.15023616,0.0015978495,-0.0038614697,0.12236864,13.85935368,100.51968263,-25.2200927734375
1649236117649,173.89062,-1.046875,-88.71875,-3.73125,-53.23125,18.675001,0.4767599,-0.24969378,0.1484109,-9.305065,0.02932897,0.20949265,5.326165E-4,0.051530648,-0.04061201,13.85935368,100.51968263,-25.2200927734375
1649236117762,173.34375,-1.515625,-88.484375,-3.4875002,-52.031254,18.862501,-0.52649117,-0.38239995,-0.28411287,-10.19092,-0.14305355,-0.3226187,0.028228676,0.044074018,0.14154284,13.85934492,100.51975306,-23.828033447265625
1649236117860,173.26562,-1.671875,-88.3125,-4.2562504,-51.45,20.4375,0.278965,0.057455555,0.2701941,-9.654618,0.31663316,0.34356794,-0.0015978495,-0.143407,-0.052329574,13.85934492,100.51975306,-23.828033447265625
1649236117963,173.4375,-1.421875,-88.421875,-4.3125,-50.362503,20.56875,-0.28808022,0.34143224,0.16191222,-10.023325,0.65182143,0.50637364,-0.08149032,-0.051796954,0.08934642,13.85934492,100.51975306,-23.828033447265625
1649236118066,173.89062,-1.015625,-88.75,-4.74375,-49.875004,21.018751,0.34582233,0.081985265,-0.08800705,-9.67856,0.43155485,0.3196259,-0.020772044,0.07283531,-0.07469947,13.85934492,100.51975306,-23.828033447265625
1649236118174,173.60938,-1.125,-88.484375,-5.1375003,-48.7125,21.393751,0.35906124,-0.26645443,0.13808307,-9.329007,0.16819267,0.13706805,-0.0484681,0.24327259,0.096803054,13.85934492,100.51975306,-23.828033447265625
1649236118280,173.03125,-1.59375,-87.546875,-6.6375003,-48.393753,21.7875,-0.13543987,-0.44259995,-0.3226527,-9.855731,-0.12868834,-0.3561375,0.035685305,-0.019839965,0.012649642,13.85934492,100.51975306,-23.828033447265625
1649236118382,173.09375,-1.4375,-87.828125,-7.05,-47.8125,21.675001,-0.19603443,0.07252064,0.15261532,-10.075998,0.45070848,0.31483752,-0.045272402,-0.1561898,0.10639015,13.85934492,100.51975306,-23.828033447265625
1649236118490,172.875,-1.53125,-88.34375,-7.3125005,-47.568752,21.862501,0.46181488,0.41831696,0.15736559,-9.309854,0.9343372,0.5590461,-0.09214266,-0.13808084,-0.08322133,13.85934492,100.51975306,-23.828033447265625
1649236118592,173.28125,-1.171875,-88.828125,-6.9375005,-46.95,21.2625,-0.39358425,-0.24814191,-0.1266369,-10.224439,0.16340427,0.18555063,0.0037283157,0.16551058,0.023301972,13.85934492,100.51975306,-23.828033447265625
1649236118702,172.9375,-1.46875,-88.421875,-6.4687505,-46.350002,21.1875,0.12024021,-0.14335349,0.11589697,-9.736021,0.27353755,0.16579847,0.025032977,0.043008782,0.035019536,13.85934498,100.51984601,-22.323028564453125
1649236118800,172.5625,-1.53125,-87.578125,-6.9,-47.2125,20.625,0.2066698,-0.17337981,-0.04202354,-9.630676,0.26874915,0.04129998,-0.070838,0.062182978,-0.055525273,13.85934498,100.51984601,-22.323028564453125
1649236118904,172.35938,-1.609375,-88.015625,-6.4687505,-45.9375,21.13125,-0.873744,-0.029059172,0.0035951063,-10.651205,0.28790274,0.002992752,0.042076703,-0.1338199,0.15432563,13.85934498,100.51984601,-22.323028564453125
1649236119008,172.07812,-1.84375,-87.734375,-8.025001,-45.46875,20.98125,0.8348942,0.45933443,0.6476339,-8.825626,1.0163386,0.9995792,0.015445879,-0.2627131,0.07017223,13.85934498,100.51984601,-22.323028564453125
1649236119111,172.09375,-1.65625,-88.3125,-8.793751,-45.1875,21.6,-0.5243416,-0.041873217,-0.060059994,-10.281899,0.40282443,0.36750996,0.06231613,0.12183603,-0.18122277,13.85934498,100.51984601,-22.323028564453125
1649236119220,172.0625,-1.515625,-88.359375,-8.493751,-44.475002,22.800001,0.22359562,-0.21567705,0.52327496,-8.940548,0.6901286,-0.10235212,0.015445879,0.1047923,-0.032090146,13.85934498,100.51984601,-22.323028564453125
1649236119325,170.42188,-3.328125,-86.234375,-8.175,-44.90625,22.3875,0.0049448013,0.3018352,0.50577676,-9.67856,0.6901286,0.9708488,-0.029293908,-0.26377833,0.08934642,13.85934498,100.51984601,-22.323028564453125
1649236119429,171.5625,-2.484375,-87.0625,-8.55,-44.49375,23.493752,-0.099022865,0.26024082,0.3265003,-9.850943,0.76195467,1.1815386,-0.05379427,-0.0177095,-0.17163567,13.85934498,100.51984601,-22.323028564453125
1649236119533,171.26562,-2.421875,-87.359375,-8.606251,-44.625,23.23125,-0.792016,-0.061741143,0.743001,-10.454881,0.17298107,1.4742297,0.023967743,0.24433783,-0.10452599,13.85934498,100.51984601,-22.323028564453125
1649236119638,170.82812,-2.859375,-86.53125,-8.19375,-44.34375,22.96875,-0.15878391,-0.3472441,0.74389035,-9.908403,-0.2777274,1.7136499,-0.0548595,0.14207545,-0.19400556,13.85934498,100.51984601,-22.323028564453125
1649236119753,170.95312,-2.359375,-86.265625,-7.9875,-44.5125,23.6625,0.41444683,0.052833818,0.07302046,-9.233239,-0.047285482,0.7074866,-0.023967743,0.06644391,-0.060851436,13.85932768,100.51992067,-21.15087890625
1649236119847,171.46875,-1.578125,-87.34375,-7.9687505,-45.206253,25.237501,-0.001821518,0.30753642,-0.06829864,-10.013748,0.14425065,0.62129533,0.06338137,0.12290126,-0.1790923,13.85932768,100.51992067,-21.15087890625
1649236119949,172.51562,-0.3125,-89.046875,-8.26875,-44.643753,24.900002,0.6353855,-0.18725589,0.25865686,-8.954913,-0.36391866,0.80804306,-0.045272402,0.023834588,0.045671865,13.85932768,100.51992067,-21.15087890625
1649236120053,173.8125,179.54688,-89.5,-9.50625,-44.8875,24.16875,-0.3344965,-0.043117434,0.22517008,-10.119094,-0.15801731,0.9804256,-0.0015978495,-0.108254306,0.14473854,13.85932768,100.51992067,-21.15087890625
1649236120160,174.60938,178.73438,-88.5625,-7.74375,-45.393753,23.34375,0.49677944,-0.18902804,0.13415146,-9.309854,-0.30166942,0.8463503,-0.06870753,0.12716219,-0.11198262,13.85932768,100.51992067,-21.15087890625
1649236120262,174.5625,178.60938,-88.265625,-7.5937505,-46.65,23.23125,-0.2451191,0.12675676,-0.018937051,-10.023325,-0.04249708,0.7170634,-0.03248961,-0.100797676,0.061650362,13.85932768,100.51992067,-21.15087890625
1649236120365,173.78125,179.34375,-89.265625,-7.6687503,-47.025,22.95,0.118561745,0.1313269,-0.2372176,-9.606734,-0.013766659,0.5686229,0.027163442,0.05366111,-0.0011983871,13.85932768,100.51992067,-21.15087890625
1649236120471,173.57812,0.765625,-88.3125,-7.6312504,-48.16875,21.862501,0.3714075,-0.02538237,-0.06921351,-9.419987,-0.061650693,0.61171854,-0.04314194,0.16551058,0.009453943,13.85932768,100.51992067,-21.15087890625
1649236120570,173.60938,0.90625,-88.390625,-6.95625,-48.131252,20.587502,0.06055069,-0.2786224,-0.3491703,-9.611523,-0.56982,0.074818805,-0.055924732,0.16018441,-0.077895164,13.85932768,100.51992067,-21.15087890625
1649236120680,172.85938,0.203125,-86.703125,-4.875,-47.79375,20.38125,-0.07982159,-0.21136472,-0.34201002,-9.831789,-0.48841715,0.074818805,0.0026630824,-0.12849373,0.05419373,13.8593079,100.51998986,-20.350921630859375
1649236120775,172.76562,0.203125,-86.828125,-5.9812503,-48.15,19.2,-0.4818077,0.2475613,0.20440245,-10.272323,0.14903906,0.8702923,-0.017576344,-0.2765611,0.22037008,13.8593079,100.51998986,-20.350921630859375
1649236120882,173.64062,1.46875,-87.40625,-6.525,-47.287502,18.75,0.07853699,0.17835805,0.67540526,-9.688137,0.30705637,1.5699978,-0.0026630824,0.04513925,0.042476166,13.8593079,100.51998986,-20.350921630859375
1649236120989,173.59375,1.65625,-87.296875,-7.33125,-47.100002,18.337502,-0.54579353,0.0707262,0.37681055,-10.267534,0.15382746,1.2294226,-0.0015978495,0.02063889,-0.022503048,13.8593079,100.51998986,-20.350921630859375
1649236121095,172.53125,0.640625,-86.9375,-6.6375003,-46.0875,17.94375,-0.029964447,-0.12039614,0.5316786,-9.788693,-0.09995792,1.2198458,-0.020772044,0.14633639,-0.0629819,13.8593079,100.51998986,-20.350921630859375
1649236121203,171.67188,-0.21875,-86.25,-6.3750005,-44.831253,18.13125,-0.48340607,-0.054039113,-0.22326523,-10.205285,-0.047285482,0.47285482,0.019706812,-0.12529804,0.096803054,13.8593079,100.51998986,-20.350921630859375
1649236121309,171.78125,-0.21875,-86.453125,-6.9750004,-44.11875,18.112501,-0.15575695,0.52294934,0.39116216,-10.147824,0.6326678,1.4359225,-0.0058587817,-0.32982278,0.015845342,13.8593079,100.51998986,-20.350921630859375
1649236121415,171.73438,-0.046875,-87.1875,-7.7250004,-44.381252,19.1625,0.99096394,0.43381554,0.6359763,-8.610147,0.75237787,1.9626468,-0.056989968,-0.050731722,0.042476166,13.8593079,100.51998986,-20.350921630859375
1649236121517,172.40625,0.65625,-86.25,-8.043751,-43.55625,19.78125,-0.45920563,0.1190684,0.10755122,-10.354323,0.38845924,1.3162124,0.060185667,0.16338012,0.006258244,13.8593079,100.51998986,-20.350921630859375
1649236121627,171.90625,0.203125,-84.296875,-9.13125,-43.48125,20.625,1.1751204,0.09878042,0.52061677,-8.547898,0.38845924,1.6849195,-0.04420717,0.07390054,-0.19613603,13.8593079,100.51998986,-20.350921630859375
1649236121725,171.23438,-0.484375,-83.203125,-8.4375,-43.275,22.275002,-0.8070793,0.028469853,-0.51991653,-10.392631,0.15861586,0.8846575,0.034620073,-0.079493016,0.042476166,13.85928582,100.52005217,-20.388519287109375
1649236121832,171.95312,0.09375,-83.984375,-9.0,-42.600002,22.81875,0.0067949295,0.19429076,0.6494911,-9.764751,0.3549404,1.7088615,0.042076703,0.09307474,0.023301972,13.85928582,100.52005217,-20.388519287109375
1649236121941,172.01562,0.046875,-84.640625,-9.4125,-41.04375,23.38125,-0.48043633,0.01721938,-0.07736039,-10.296265,0.19692309,1.1432313,0.020772044,0.05579158,-0.033155378,13.85928582,100.52005217,-20.388519287109375
1649236122043,172.96875,0.765625,-84.421875,-9.01875,-40.3875,23.475,0.26378536,0.47805065,0.23586822,-9.443929,0.7284359,1.4024036,0.07829463,-0.26910448,0.055258963,13.85928582,100.52005217,-20.388519287109375
1649236122153,172.39062,0.09375,-84.578125,-9.712501,-39.91875,24.525002,0.31943798,0.06834406,0.17359471,-9.352949,0.47465047,1.4742297,-0.028228676,0.29759946,0.015845342,13.85928582,100.52005217,-20.388519287109375
1649236122258,172.79688,0.203125,-85.234375,-10.931251,-40.143753,23.41875,-0.03868103,-0.4864605,0.28042197,-9.712079,-0.23463176,1.2916719,0.0026630824,0.2880124,-0.11730879,13.85928582,100.52005217,-20.388519287109375
1649236122364,173.0,0.171875,-84.40625,-10.14375,-39.393753,23.04375,0.09082413,-0.32904375,-0.20531625,-9.664195,-0.090381116,0.8607155,0.016511112,-0.18814678,0.12769482,13.85928582,100.52005217,-20.388519287109375
1649236122471,171.32812,-1.84375,-82.984375,-10.96875,-38.737503,22.3125,-0.31191254,0.4116624,0.2255938,-10.210073,0.55126494,1.3210008,0.03994624,-0.15512456,-0.060851436,13.85928582,100.52005217,-20.388519287109375
1649236122575,171.59375,-1.5,-84.15625,-10.293751,-39.24375,21.88125,0.009776115,0.19560897,0.5238291,-9.635465,0.44592008,1.6705543,0.013315413,0.10692277,0.005193011,13.85928582,100.52005217,-20.388519287109375
1649236122678,171.6875,-1.734375,-84.078125,-9.84375,-38.79375,21.581251,-0.39308548,-0.17818813,-0.4216261,-10.200497,0.04369418,0.6356605,0.0580552,0.06537867,0.00838871,13.85928512,100.52013199,-20.21649169921875
1649236122779,171.90625,-1.65625,-82.890625,-10.89375,-38.23125,19.875,0.3182726,0.09679316,0.13112831,-9.491813,0.3405752,1.1575965,5.326165E-4,-0.036883693,-0.025698747,13.85928512,100.52013199,-20.21649169921875
1649236122886,171.76562,-1.796875,-82.859375,-9.58125,-39.7125,20.831251,0.33606243,0.12412244,-0.26813245,-9.41041,0.46028528,0.93254155,-0.030359142,-0.020905199,-0.024633514,13.85928512,100.52013199,-20.21649169921875
1649236122991,172.07812,-1.734375,-83.640625,-10.40625,-40.3875,19.85625,-0.34644127,-0.05394402,-0.28789294,-10.157401,0.24959552,0.7745243,0.046337638,0.00998656,0.042476166,13.85928512,100.52013199,-20.21649169921875
1649236123097,172.70312,-1.046875,-83.96875,-9.637501,-40.818752,19.95,-0.07423401,-0.052360266,-0.2596007,-9.874885,0.16819267,0.6931214,0.010119714,0.10905323,-0.115178324,13.85928512,100.52013199,-20.21649169921875
1649236123203,172.03125,-1.96875,-84.140625,-9.225,-40.7625,19.96875,0.35038185,-0.12393446,-0.41428164,-9.448717,0.13467385,0.39145198,0.0015978495,0.0920095,0.055258963,13.85928512,100.52013199,-20.21649169921875
1649236123307,172.23438,-1.875,-84.484375,-8.90625,-41.98125,19.556252,-0.40365982,-0.008080497,-0.14282763,-10.21965,0.3309984,0.48722005,0.05379427,-0.054992653,0.12556434,13.85928512,100.52013199,-20.21649169921875
1649236123412,172.45312,-1.75,-85.109375,-9.50625,-42.54375,20.23125,-0.18809223,0.26080528,0.008694649,-9.956287,0.7044938,0.8367735,0.015445879,-0.1274285,0.10319445,13.85928512,100.52013199,-20.21649169921875
1649236123522,172.26562,-1.90625,-85.71875,-8.85,-44.081253,19.837502,-0.030056,0.117944,-0.086236894,-9.898827,0.6135142,0.81283146,0.03355484,0.047269717,-0.043807708,13.85928512,100.52013199,-20.21649169921875
1649236123629,172.29688,-2.0625,-86.1875,-8.606251,-45.24375,19.44375,0.8420439,-0.12316686,-0.042938232,-8.950125,0.29747957,0.712275,-0.0037283157,0.1047923,-0.07363423,13.85928512,100.52013199,-20.21649169921875
1649236123728,171.65625,-2.90625,-84.765625,-7.7812505,-46.256252,18.337502,-0.4028206,-0.4800542,-0.45520103,-10.075998,-0.018555064,0.13227965,-0.0058587817,0.14953208,0.11704248,13.85926902,100.52018874,-19.93902587890625
1649236123835,171.42188,-3.3125,-84.34375,-7.65,-48.656254,17.7,-0.20554733,-0.12375793,0.060399473,-10.128671,0.31663316,0.6404489,0.014380646,-0.17323352,-0.053394806,13.85926902,100.52018874,-19.93902587890625
1649236123940,171.70312,-3.078125,-85.09375,-5.68125,-52.8375,17.53125,0.38465595,0.39985892,0.18585831,-9.357738,0.74758947,1.0618285,-0.028228676,-0.22436471,-0.049133874,13.85926902,100.52018874,-19.93902587890625
1649236124044,171.5625,-3.28125,-85.578125,-4.18125,-57.131252,18.618752,0.4376192,0.23196739,-0.053904235,-9.5253315,0.7667431,0.88944596,0.0026630824,0.0025299285,0.015845342,13.85926902,100.52018874,-19.93902587890625
1649236124148,172.29688,-2.5625,-85.265625,-3.4125001,-61.031254,21.243752,-0.19401646,-0.26180053,0.049134254,-9.937134,0.2112883,0.80804306,0.013315413,0.17509767,-0.047003407,13.85926902,100.52018874,-19.93902587890625
1649236124250,172.4375,-2.390625,-84.171875,-2.6437502,-61.256252,23.212502,0.021680832,-0.035865456,-0.14424825,-9.683349,0.40282443,0.58777654,0.042076703,-0.09547151,0.058454663,13.85926902,100.52018874,-19.93902587890625
1649236124357,172.375,-2.578125,-84.015625,-3.24375,-60.412502,24.393751,0.5874052,0.10014063,0.22118652,-9.184756,0.46028528,1.0426749,-0.019706812,-0.0177095,-0.14926578,13.85926902,100.52018874,-19.93902587890625
1649236124465,173.25,-1.6875,-85.0,-1.9125,-60.7125,24.018751,0.12090206,-0.00243935,0.059157073,-9.582792,0.42676646,0.9564836,-0.025032977,-0.0145138,0.08508549,13.85926902,100.52018874,-19.93902587890625
1649236124571,173.03125,-2.140625,-85.25,-0.075,-61.031254,24.937502,-0.59451103,-0.113523036,0.03710729,-10.262746,0.20171149,0.80325466,0.037815772,-0.008122402,-0.035285845,13.85926902,100.52018874,-19.93902587890625
1649236124677,172.53125,-2.640625,-84.1875,-1.7437501,-60.093754,26.831251,0.24354172,-0.08264089,0.04313582,-9.5732155,0.28311434,0.88944596,0.0058587817,-0.0038614697,-0.0118507175,13.85926523,100.5202658,-19.8822021484375
1649236124773,172.32812,-2.921875,-84.25,-1.66875,-59.287502,28.368752,-0.25980282,0.3832508,0.17251945,-10.157401,0.8050503,1.1145009,0.0580552,-0.15405932,0.061650362,13.85926523,100.5202658,-19.8822021484375
1649236124885,173.0625,-2.3125,-84.265625,-2.6437502,-57.187504,29.8875,0.24683666,0.29908246,0.20868415,-9.4295635,0.8194155,1.1432313,0.035685305,0.089879036,-0.0693733,13.85926523,100.5202658,-19.8822021484375
