timestamp,orientation.x,orientation.y,orientation.z,ak0991x_magnetometer.x,ak0991x_magnetometer.y,ak0991x_magnetometer.z,linear_acceleration.x,linear_acceleration.y,linear_acceleration.z,icm4x6xx_accelerometer.x,icm4x6xx_accelerometer.y,icm4x6xx_accelerometer.z,icm4x6xx_gyroscope.x,icm4x6xx_gyroscope.y,icm4x6xx_gyroscope.z,GPS.lat,GPS.long,GPS.alt
1644887481518,128.25,-11.84375,-78.046875,16.725,-53.662502,-26.7,-0.42943478,-0.096230716,0.24397723,-9.755175,0.30705637,1.1097125,0.07336792,-0.031690683,0.028361829,13.73617456,100.52922755,-32.71844482421875
1644887481621,128.25,-11.84375,-78.046875,16.95,-54.91875,-26.343752,0.62195206,0.22549903,-0.9273551,-9.281123,0.3453636,-0.85891986,0.0435414,0.023701435,-0.022769356,13.73617456,100.52922755,-32.71844482421875
1644887481725,128.25,-11.84375,-78.046875,18.09375,-55.781254,-25.66875,-0.15390587,-0.5266473,1.1736302,-9.472659,-0.32561144,0.6739678,0.10532492,-0.080691405,0.019839965,13.73617456,100.52922755,-32.71844482421875
1644887481827,149.09375,-2.671875,-87.3125,17.831251,-55.3875,-25.968752,0.43837738,0.12516536,0.15436624,-10.200497,-0.33518824,-0.3369839,0.041410934,0.016244804,0.0027962367,13.73617456,100.52922755,-32.71844482421875
1644887481928,148.4375,-3.5,-86.34375,18.09375,-55.687504,-25.875002,0.07235432,-0.36179549,-0.20874482,-9.376891,0.0676362,-0.74399817,0.090411656,-0.02423405,0.023035664,13.73617456,100.52922755,-32.71844482421875
1644887482031,152.40625,-1.265625,-88.40625,17.90625,-56.025,-25.368752,0.16803265,0.4310076,-1.0957897,-10.214862,0.23523031,0.093972415,0.026497671,0.04394086,0.0027962367,13.73617456,100.52922755,-32.71844482421875
1644887482134,152.90625,-1.3125,-88.34375,17.868752,-57.468754,-26.081251,0.15270615,0.83105874,-1.0108103,-10.104729,0.84814596,0.37708676,-0.025698747,0.055658426,-0.018508423,13.73617456,100.52922755,-32.71844482421875
1644887482243,152.04688,-0.40625,-89.375,17.6625,-57.2625,-25.44375,-0.5986147,1.1963718,-0.85211927,-9.855731,0.9828198,-0.7823054,-0.015046417,-0.032755915,-0.0014646954,13.73617456,100.52922755,-32.71844482421875
1644887482350,151.25,-1.703125,-88.25,17.8875,-57.05625,-26.2875,-0.7418661,-0.7217894,1.3237711,-9.645041,-0.6560113,0.88944596,0.07869409,-0.11264839,0.016644266,13.73617456,100.52922755,-32.71844482421875
1644887482454,150.32812,-2.921875,-86.953125,17.475,-55.687504,-26.212502,0.24896908,-0.120433174,-0.34042224,-9.472659,-0.48841715,0.25258827,-0.006524552,0.0077229394,-3.9946238E-4,13.73617456,100.52922755,-32.71844482421875
1644887482553,151.60938,-2.109375,-87.546875,18.0375,-56.737503,-25.612501,-0.01269722,-0.16895586,0.37673107,-8.96449,0.0724246,-0.44711718,0.06378083,-0.07003907,0.0027962367,13.73640099,100.52936918,-34.39862060546875
1644887482664,153.42188,-0.8125,-89.078125,17.4375,-57.35625,-25.44375,-0.44423008,-0.6456412,0.41066247,-9.587581,-0.17238252,-0.107140526,0.11384678,-0.05193011,-0.0057256273,13.73640099,100.52936918,-34.39862060546875
1644887482761,154.28125,-0.21875,-89.484375,17.550001,-57.693752,-25.593752,1.2462025,0.5465746,-0.78145444,-9.482236,-0.20111294,-1.6352397,0.006258244,0.052462727,-0.016377958,13.73640099,100.52936918,-34.39862060546875
1644887482868,155.25,0.3125,-89.5625,17.8875,-58.031254,-25.312502,0.025802612,-0.32908696,0.38086724,-9.5013895,0.10594343,-0.53330845,0.109585844,-0.057256274,-0.007856093,13.73640099,100.52936918,-34.39862060546875
1644887482972,154.95312,-0.25,-89.59375,17.7,-57.862503,-25.7625,-0.3106842,-0.09840244,0.5637321,-10.378265,-0.20590134,0.712275,0.0627156,-0.014646954,0.0059919357,13.73640099,100.52936918,-34.39862060546875
1644887483075,155.28125,-0.3125,-89.6875,17.85,-57.6375,-24.750002,0.51219845,0.3431866,-1.6084073,-9.300277,0.24959552,-1.1563994,-0.0011983871,0.015179571,-0.0025299285,13.73640099,100.52936918,-34.39862060546875
1644887483187,156.0,179.96875,-89.5,18.337502,-57.656254,-25.181252,0.4482584,0.03297706,-1.3944048,-9.117719,0.3357868,-1.5825673,0.050998032,0.010918639,-0.0046603945,13.73640099,100.52936918,-34.39862060546875
1644887483285,156.20312,-179.96875,-88.265625,18.16875,-57.843754,-24.6375,-0.4049034,-0.22218885,-0.18324864,-10.416573,-0.18674773,0.5590461,0.035019536,0.010918639,-0.0067908606,13.73640099,100.52936918,-34.39862060546875
1644887483389,156.375,-179.8125,-87.0,18.0375,-58.050003,-24.54375,0.70700455,0.3563186,-0.9586974,-9.79827,-0.25378537,-1.4197617,-0.0011983871,0.03328853,0.004926703,13.73640099,100.52936918,-34.39862060546875
1644887483491,156.65625,-179.82812,-86.484375,17.94375,-58.7625,-25.800001,-0.3552847,-0.41953638,0.5453698,-9.783905,-0.12389994,-0.7152678,0.10532492,-0.05512581,0.020905199,13.73640099,100.52936918,-34.39862060546875
1644887483595,156.59375,-179.42188,-86.78125,17.625,-58.312504,-23.962502,-0.07323933,-0.09732249,0.38244057,-10.052056,-0.2681506,0.40581718,0.041410934,-0.007190323,0.02197043,13.73640099,100.52936918,-34.39862060546875
1644887483696,157.0625,-179.625,-87.296875,18.075,-59.287502,-25.425001,0.31317806,0.41329816,-1.3151497,-9.400833,0.54168814,-1.1372458,0.032889068,0.01837527,0.012383334,13.73640099,100.52936918,-34.39862060546875
1644887483800,157.90625,179.95312,-87.15625,17.41875,-59.5125,-28.050001,-0.177351,-0.15882123,0.03865181,-9.376891,0.29269117,-0.5907693,0.095737815,-0.029560216,0.010252868,13.73640099,100.52936918,-34.39862060546875
1644887483900,157.8125,-179.6875,-87.15625,17.75625,-59.5875,-27.50625,0.015615463,0.03807278,0.17808262,-10.157401,-0.08080431,-0.10235212,0.049932797,0.013049104,0.013448567,13.73640099,100.52936918,-34.39862060546875
1644887484003,157.54688,-179.07812,-86.359375,17.4375,-59.7,-26.643751,0.32621098,0.46512282,-1.2716124,-9.731233,0.41240123,-0.9115923,0.017975807,0.04713656,-0.008921326,13.73640099,100.52936918,-34.39862060546875
1644887484114,157.84375,-179.0,-86.390625,16.931252,-60.15,-26.081251,0.24874496,-0.022890478,-0.29168892,-9.544485,0.23044191,-1.448492,0.095737815,-0.010386022,-0.0025299285,13.73640099,100.52936918,-34.39862060546875
1644887484214,158.21875,-179.0625,-86.09375,16.5,-60.2625,-25.331251,-0.4044428,-0.23011896,0.4399702,-9.630676,0.3405752,-0.29388827,0.11597724,-0.01997312,0.0177095,13.73640099,100.52936918,-34.39862060546875
1644887484317,157.84375,-178.32812,-85.734375,16.35,-59.325,-24.31875,0.21880054,0.55907035,-0.4485768,-9.788693,0.52732295,-1.0031705,0.044606633,0.016244804,0.020905199,13.73640099,100.52936918,-34.39862060546875
1644887484417,158.64062,-178.79688,-86.0,16.331251,-60.187504,-23.56875,0.11330032,0.35416192,-0.760726,-9.707291,0.7428011,-1.2904748,0.10212921,0.0322233,0.004926703,13.73640099,100.52936918,-34.39862060546875
1644887484517,159.70312,-179.3125,-86.03125,17.493752,-60.750004,-24.45,0.04641342,0.3596523,-0.17787611,-9.764751,0.43155485,-1.1994951,0.11384678,-0.009320789,0.0038614697,13.73640099,100.52936918,-34.39862060546875
1644887484620,159.125,-178.40625,-85.546875,17.831251,-61.912502,-23.60625,0.34615612,0.7540879,-0.46936238,-9.146449,1.0977415,-1.5394717,0.14580376,0.013049104,0.0059919357,13.73640099,100.52936918,-34.39862060546875
1644887484722,158.01562,-176.84375,-84.28125,18.75,-62.550003,-23.00625,0.08783531,0.2139206,-0.61588246,-9.783905,0.9151836,-1.3670892,0.1980002,0.009853406,6.657706E-4,13.73640099,100.52936918,-34.39862060546875
1644887484826,158.23438,-176.29688,-83.0625,17.8125,-62.456253,-22.7625,0.27960205,0.27830338,-0.4312775,-9.41041,0.9151836,-1.2138603,0.22463101,0.015179571,0.011318101,13.73640099,100.52936918,-34.39862060546875
1644887484926,158.29688,-175.79688,-82.6875,17.681252,-62.5875,-22.59375,0.28800488,0.31423634,-0.14013135,-9.276335,0.919972,-1.3096284,0.25552276,-0.011451255,0.040079392,13.73640099,100.52936918,-34.39862060546875
1644887485031,158.45312,-174.90625,-80.921875,17.90625,-64.350006,-21.112501,-0.2484541,0.59879726,-0.11783385,-9.860519,1.5095441,-1.5921441,0.3045235,-0.043408245,0.032622762,13.73640099,100.52936918,-34.39862060546875
1644887485135,159.21875,-174.35938,-79.5625,17.25,-65.381256,-20.5125,0.16105652,0.9970466,-0.729967,-9.391256,2.1086931,-1.721431,0.3758941,0.022636201,0.027296597,13.73640099,100.52936918,-34.39862060546875
1644887485242,160.20312,-174.21875,-78.921875,17.362501,-66.318756,-19.237501,0.68012047,1.478941,0.35825205,-9.860519,2.3145945,-2.3636756,0.44619948,0.015179571,0.009187635,13.73640099,100.52936918,-34.39862060546875
1644887485343,159.8125,-172.23438,-77.359375,16.800001,-67.875,-19.25625,-0.14855766,0.3133427,0.061251163,-9.817424,1.7298107,-1.5490485,0.50052637,0.0034620073,-0.0014646954,13.73640099,100.52936918,-34.39862060546875
1644887485444,160.01562,-171.07812,-76.984375,16.331251,-67.387505,-17.081251,0.2861395,0.50796473,0.7671046,-9.213487,2.1709423,-2.3971944,0.5676361,-0.06790861,-0.0025299285,13.73640099,100.52936918,-34.39862060546875
1644887485544,163.07812,-171.39062,-76.84375,16.48125,-69.9375,-15.637501,0.2236557,1.2598637,-0.08884299,-9.707291,2.534861,-2.9191303,0.5836145,-0.025299285,0.029427063,13.73640099,100.52936918,-34.39862060546875
1644887485647,165.07812,-170.54688,-75.796875,16.10625,-71.475006,-13.837501,-0.1331129,0.84500575,0.40265608,-9.779117,2.8700492,-0.24121583,0.62941957,0.013049104,0.03581846,13.73640099,100.52936918,-34.39862060546875
1644887485748,166.17188,-169.42188,-75.40625,15.4875,-72.20625,-11.7375,-0.16302013,0.48845315,-0.4107188,-9.472659,3.0376434,-1.7597382,0.7157034,0.0290276,-0.022769356,13.73640099,100.52936918,-34.39862060546875
1644887485852,168.60938,-168.5,-74.40625,16.03125,-73.9875,-9.337501,0.7890234,1.595976,0.5558468,-9.434352,2.8892028,-0.74878657,0.6592461,0.017310036,0.0027962367,13.73640099,100.52936918,-34.39862060546875
1644887485958,169.6875,-167.0,-74.109375,14.85,-74.3625,-6.7312503,0.40568447,1.2686521,1.4237683,-9.913192,2.2284033,-1.8363527,0.74552995,-0.04873441,0.013448567,13.73640099,100.52936918,-34.39862060546875
1644887486061,173.46875,-166.59375,-73.90625,15.168751,-76.8,-4.4812503,-0.21211052,1.330902,2.753139,-10.171766,2.4917655,0.47764325,0.78188103,-0.023168819,-0.0035951615,13.73640099,100.52936918,-34.39862060546875
1644887486165,176.92188,-167.0,-73.96875,13.931251,-77.9625,-2.6437502,0.381114,2.5558429,3.1590571,-10.842741,3.1334114,-0.8158242,0.77762014,-0.050864875,0.016644266,13.73640099,100.52936918,-34.39862060546875
1644887486269,181.0625,-166.5625,-73.8125,13.181251,-78.0,1.03125,-0.16632938,2.5691068,0.4353267,-9.132084,3.976769,0.04129998,0.7338124,-0.02423405,0.019839965,13.73638622,100.52938151,-19.684112548828125
1644887486371,186.40625,-167.07812,-73.921875,12.69375,-79.96875,4.3875003,0.042128563,1.2499768,1.5637054,-9.419987,2.4582467,0.90381116,0.80744666,0.0045272405,0.007057169,13.73638622,100.52938151,-19.684112548828125
1644887486473,190.35938,-167.46875,-73.96875,11.4375,-78.80625,5.9437504,-0.7263355,2.9338818,1.1155746,-9.750386,4.59986,0.15622166,0.8095771,-0.015712187,-0.017443191,13.73638622,100.52938151,-19.684112548828125
1644887486576,196.20312,-168.23438,-74.171875,12.468751,-80.30625,9.675,-0.56392956,3.2117937,0.6722348,-9.779117,3.9001546,-0.5907693,0.7637721,-0.037016846,0.030492295,13.73638622,100.52938151,-19.684112548828125
1644887486682,200.64062,-168.90625,-74.328125,11.137501,-79.8,13.5375,-0.39064503,2.2473807,0.81396616,-9.281123,3.3446999,0.15143326,0.80425096,-0.05938674,0.06777545,13.73638622,100.52938151,-19.684112548828125
1644887486777,207.03125,-169.89062,-74.328125,10.96875,-79.0875,17.775002,-1.2293491,3.7678828,1.3985701,-10.751761,4.2784386,-1.0893618,0.7722939,-0.10519176,0.09547151,13.73638622,100.52938151,-19.684112548828125
1644887486890,213.89062,-171.125,-74.40625,11.0625,-79.18125,20.456251,-0.6675606,3.7932973,2.0509915,-9.793482,4.2401314,0.7026982,0.7648373,-0.07643047,0.085884415,13.73638622,100.52938151,-19.684112548828125
1644887486991,218.67188,-171.89062,-74.375,9.4125,-78.225006,23.587502,-0.14424706,3.7735143,2.2995458,-10.359112,4.484938,0.30526072,0.8681649,-0.07323477,0.0145138,13.73638622,100.52938151,-19.684112548828125
1644887487098,225.10938,-172.76562,-74.46875,9.3,-77.45625,27.093752,0.11674404,2.5160189,1.3395416,-7.848193,4.69084,1.4646529,0.9480574,-0.08175664,-0.008921326,13.73638622,100.52938151,-19.684112548828125
1644887487197,229.89062,-173.46875,-74.59375,7.93125,-76.725006,30.300001,1.1986504,2.870324,1.1952689,-9.069835,3.6128504,-0.9355343,0.87988245,2.6630826E-4,0.08908011,13.73636669,100.52940732,-24.60345458984375
1644887487296,236.71875,-174.48438,-74.84375,7.2375,-74.5875,33.24375,-0.48100376,4.6005692,0.68213594,-8.959702,6.099229,1.3066356,0.91716564,-0.033821147,0.033687994,13.73636669,100.52940732,-24.60345458984375
1644887487399,241.89062,-175.375,-75.109375,6.76875,-71.4375,36.09375,0.45363998,4.7118444,0.803449,-9.069835,5.394735,-0.56203884,0.85964304,-0.04873441,0.0038614697,13.73636669,100.52940732,-24.60345458984375
1644887487499,248.96875,-176.40625,-75.328125,6.525,-70.55625,39.43125,-1.0682821,3.4579678,0.4940709,-9.544485,5.697003,2.3505075,0.9661664,-0.028494984,6.657706E-4,13.73636669,100.52940732,-24.60345458984375
1644887487601,254.04688,-177.03125,-75.34375,7.14375,-67.8,41.081253,-0.038251877,3.910236,1.9139773,-10.866683,4.5567646,-0.7009025,0.94060075,-0.005059857,0.04966649,13.73636669,100.52940732,-24.60345458984375
1644887487714,261.6875,-178.39062,-75.71875,5.55,-64.425,44.15625,-0.21794224,3.0931427,2.7354844,-8.950125,4.259285,1.6849195,0.9001219,-0.11584409,0.10399337,13.73636669,100.52940732,-24.60345458984375
1644887487795,266.875,-179.3125,-76.046875,6.0937505,-63.35625,45.35625,-0.56984997,4.2257833,2.2466335,-11.6669445,4.6046486,1.1049241,0.8330122,0.07163692,0.08694965,13.73636669,100.52940732,-24.60345458984375
1644887487910,274.6875,179.42188,-76.484375,5.7375,-60.318752,47.100002,0.9831848,4.2434583,1.2653631,-8.270171,5.8358665,0.14185645,0.85325164,-0.07856093,0.0059919357,13.73636669,100.52940732,-24.60345458984375
1644887488010,281.79688,178.5625,-76.84375,5.5687504,-56.831253,48.43125,0.2018795,3.559473,0.4114064,-8.519168,5.2798133,0.90859956,0.85964304,-0.042343013,0.018774733,13.73636669,100.52940732,-24.60345458984375
1644887488117,286.75,177.96875,-77.015625,5.7000003,-54.075,49.612503,0.33607578,5.4195833,0.7577155,-9.247604,7.387908,-0.9068039,0.9022524,-0.009320789,6.657706E-4,13.73636669,100.52940732,-24.60345458984375
1644887488224,293.78125,176.95312,-77.671875,5.8500004,-51.131252,50.250004,-0.3130808,5.037801,-0.52788246,-10.986393,5.4138885,-2.1386206,0.7465952,0.062049825,6.657706E-4,13.73627026,100.52938438,-26.270904541015625
1644887488331,300.54688,176.03125,-78.046875,6.0,-47.9625,50.287502,-1.0533533,1.2255124,0.8382758,-11.7387705,2.5731683,0.12749124,0.709312,0.055658426,-0.050465416,13.73627026,100.52938438,-26.270904541015625
1644887488431,305.4375,175.375,-78.21875,5.625,-45.75,50.41875,-0.39523888,-0.8129697,1.1409354,-10.0903635,1.22224,-2.32058,0.60385394,-0.054060575,-0.06963961,13.73627026,100.52938438,-26.270904541015625
1644887488530,311.95312,174.42188,-78.265625,5.775,-43.65,50.4,-0.6147251,0.8009755,-0.037674665,-10.234015,1.22224,-2.3110032,0.3268934,-0.017842652,-3.9946238E-4,13.73627026,100.52938438,-26.270904541015625
1644887488635,316.40625,173.57812,-78.234375,6.0375004,-42.693752,50.343754,0.09083176,0.17170125,0.6564269,-9.731233,0.2208651,-2.8568811,0.22676148,-0.05832151,0.04860126,13.73627026,100.52938438,-26.270904541015625
1644887488740,321.45312,172.59375,-78.015625,5.7937503,-42.037502,49.575,0.5171499,-0.0767774,-0.071743846,-8.930971,0.6853402,-1.8555063,0.15752134,-0.04873441,0.036883693,13.73627026,100.52938438,-26.270904541015625
1644887488842,324.95312,171.9375,-77.890625,5.83125,-41.11875,50.156254,1.0292931,1.0677803,0.5209545,-8.629301,1.4041992,-1.2282255,0.08615072,-0.021038352,0.020905199,13.73627026,100.52938438,-26.270904541015625
1644887488943,326.64062,171.6875,-77.875,5.625,-40.575,49.893753,-1.0170851,0.7614729,0.27716196,-9.985018,2.0266917,0.2621651,0.042476166,-0.028494984,0.013448567,13.73627026,100.52938438,-26.270904541015625
1644887489052,328.09375,171.59375,-78.0625,6.05625,-40.275,49.3875,0.011837006,0.64115417,-0.14074028,-9.759963,0.30705637,-3.9348705,0.009453943,-0.043408245,-0.0014646954,13.73627026,100.52938438,-26.270904541015625
1644887489150,328.8125,171.54688,-78.25,5.3812504,-40.59375,50.4,0.043797493,0.14686227,-1.094329,-9.534908,1.5191209,-1.5682021,0.039280467,0.05033226,-0.028095521,13.73627026,100.52938438,-26.270904541015625
1644887489254,329.57812,171.42188,-78.28125,5.7375,-39.693752,49.031254,-0.21061993,0.18643725,1.0830865,-10.19092,0.6997054,-2.569577,0.08402026,-0.042343013,0.010252868,13.7362135,100.52937669,-28.48907470703125
1644887489356,323.71875,176.76562,-80.203125,5.625,-40.21875,49.125004,-0.42626858,0.019599557,0.26744688,-9.045893,0.7332243,-2.167351,0.056324195,-0.023168819,0.030492295,13.7362135,100.52937669,-28.48907470703125
1644887489456,324.17188,176.64062,-80.171875,6.3562503,-39.018753,48.61875,-0.5713463,0.8453634,-1.06773,-9.233239,1.2892777,-2.3301568,-0.02356828,-0.018907886,0.04860126,13.7362135,100.52937669,-28.48907470703125
1644887489560,282.32812,-179.28125,-80.09375,5.4375,-39.037502,49.18125,0.2778902,0.6032776,-0.2565167,-9.405622,0.6326678,-1.5394717,-0.032090146,-7.9892477E-4,0.020905199,13.7362135,100.52937669,-28.48907470703125
1644887489667,280.28125,-177.32812,-79.984375,6.2250004,-39.112503,49.537502,1.9283276,-0.5696018,0.36907518,-9.20391,0.014963761,-2.1721394,0.08402026,0.08548495,-0.074965775,13.7362135,100.52937669,-28.48907470703125
1644887489772,277.9375,-175.26562,-77.453125,5.68125,-39.5625,49.74375,1.253398,-1.3626683,-0.44418442,-8.4664955,-0.17238252,-0.9840169,0.033954304,0.055658426,-0.051530648,13.7362135,100.52937669,-28.48907470703125
1644887489871,248.25,-174.45312,-76.765625,6.15,-38.68125,49.800003,1.469368,-1.1049984,0.88202274,-8.96449,-0.41180268,-2.5887306,0.06058513,-0.011451255,-0.029160755,13.7362135,100.52937669,-28.48907470703125
1644887489978,231.8125,-175.09375,-77.4375,5.7000003,-38.41875,49.18125,-0.43338013,0.91499954,-1.1557943,-10.799645,3.1190462,-2.7563248,0.1308905,0.09187635,-0.1143794,13.7362135,100.52937669,-28.48907470703125
1644887490080,227.95312,-175.28125,-77.5625,5.7000003,-38.4375,49.36875,-0.29222584,-0.028637111,0.9403924,-11.7387705,0.038905777,-2.7132292,0.046737097,0.09187635,-0.05579158,13.7362135,100.52937669,-28.48907470703125
1644887490180,227.9375,-175.26562,-77.703125,5.2312503,-38.025,49.0125,1.1956654,-0.7597064,1.1783252,-10.147824,-0.35913026,-2.5600002,0.08934642,0.08868065,-0.07177007,13.7362135,100.52937669,-28.48907470703125
1644887490282,228.15625,-175.46875,-77.75,5.175,-38.41875,49.0125,0.6763706,-0.7710328,-0.9295597,-8.581417,-0.037708677,-2.3253684,-0.017176883,0.009853406,-0.033421688,13.73614514,100.52936638,-28.572998046875
1644887490385,229.10938,-176.3125,-78.015625,4.5375004,-37.85625,49.2,-0.30834293,-0.90510756,-0.6190599,-9.664195,-0.30166942,-1.7932571,-0.061916668,0.0066577066,0.024100898,13.73614514,100.52936638,-28.572998046875
1644887490488,224.95312,-176.45312,-77.3125,4.59375,-37.725002,49.031254,0.82313824,-0.19000229,1.2609197,-9.338584,-0.5554548,-2.4211364,-0.031024912,-0.050864875,0.008122402,13.73614514,100.52936638,-28.572998046875
1644887490595,225.03125,-176.65625,-77.375,3.3375,-37.66875,47.5125,-0.69845104,0.22490889,-2.3438,-8.54311,0.66139823,-3.594894,-0.10346076,-0.05512581,-0.0035951615,13.73614514,100.52936638,-28.572998046875
1644887490695,222.21875,-176.65625,-77.390625,3.9,-38.081253,47.456253,0.08785057,-0.5279439,-1.3997912,-8.341997,-0.076015905,-1.2856863,-0.077895164,-0.037016846,-0.023834588,13.73614514,100.52936638,-28.572998046875
1644887490800,222.23438,-177.09375,-76.890625,4.8375,-39.0,46.18125,0.6259985,0.3390475,0.3625301,-8.001422,-0.79487497,-1.2856863,-0.10985216,-0.060451973,-0.0035951615,13.73614514,100.52936638,-28.572998046875
1644887490896,222.17188,-177.15625,-76.828125,6.80625,-40.29375,45.75,-1.3077908,0.40591115,0.58324575,-10.766127,-0.30645782,-2.9430726,-0.09387366,-0.15632294,0.028361829,13.73614514,100.52936638,-28.572998046875
1644887491002,222.07812,-177.3125,-76.96875,7.55625,-41.456253,45.787502,0.15390682,-0.9943974,-0.49323,-8.547898,-1.0582372,-0.6338649,-0.13009158,-0.014646954,0.037948925,13.73614514,100.52936638,-28.572998046875
1644887491112,222.6875,-177.98438,-77.109375,9.825001,-42.61875,47.643753,-0.8271313,-1.2657465,0.0852232,-8.629301,-2.5390508,-2.569577,-0.12796111,-0.17230144,0.10612384,13.73614514,100.52936638,-28.572998046875
1644887491214,222.5,-178.0,-77.328125,8.493751,-42.91875,49.85625,6.040175,-3.5303075,-0.6746347,-4.312556,-2.3660698,-1.9560628,0.030758604,0.23461758,-0.05259588,13.7360644,100.52935894,-28.296966552734375
1644887491315,222.3125,-177.98438,-77.421875,8.25,-42.35625,49.0875,2.2171211,-2.181991,0.37151742,-5.6826377,-1.939902,-4.821324,0.053128496,-0.06897384,-0.030225987,13.7360644,100.52935894,-28.296966552734375
1644887491421,221.84375,-177.82812,-77.515625,7.14375,-41.4375,49.575,3.5780802,-1.8943679,-2.1942306,-8.590994,-0.36870706,-4.260482,0.07017223,0.364576,-0.12290126,13.7360644,100.52935894,-28.296966552734375
1644887491521,221.4375,-177.64062,-77.3125,7.3500004,-41.34375,49.575,2.174264,-3.6640847,0.20271564,-9.088988,-3.913921,0.19991584,-0.019307349,0.22396524,-0.03448692,13.7360644,100.52935894,-28.296966552734375
1644887491623,220.75,-177.40625,-77.0625,7.6312504,-42.2625,49.612503,0.6842947,-3.5998154,0.835256,-7.9248075,-3.5643678,1.6418238,-0.08961273,-0.086017564,0.0059919357,13.7360644,100.52935894,-28.296966552734375
1644887491727,220.4375,-177.23438,-77.09375,7.0687504,-42.43125,50.193752,0.5100727,0.05996284,-0.3158232,-7.920019,-0.89064306,-1.5394717,-0.182288,-0.086017564,0.03901416,13.7360644,100.52935894,-28.296966552734375
1644887491830,219.96875,-177.09375,-77.265625,6.6375003,-41.625,49.48125,-1.9744291,0.6183686,-0.32424796,-11.877635,-0.032920275,-2.3876176,-0.150331,0.06098459,0.08268871,13.7360644,100.52935894,-28.296966552734375
1644887491934,219.125,-176.76562,-77.40625,5.5875,-40.36875,49.575,-4.2753267,2.3848317,0.43251133,-13.444041,1.8351556,-1.9033904,-0.17376614,-0.07643047,0.09121058,13.7360644,100.52935894,-28.296966552734375
1644887492036,218.79688,-176.75,-77.609375,5.9625,-42.581253,50.60625,-4.3124294,3.5278573,-0.77774143,-12.615647,2.8221653,-4.068946,-0.25791955,-0.1872147,0.13914606,13.7360644,100.52935894,-28.296966552734375
1644887492139,218.59375,-176.71875,-77.625,5.3812504,-42.0,49.218754,-3.053316,1.7702816,-1.7953469,-12.740146,3.3399115,-2.7371712,-0.052329574,-0.01677742,0.027296597,13.7360644,100.52935894,-28.296966552734375
1644887492241,218.01562,-176.57812,-77.3125,5.9437504,-41.831253,49.987503,-2.2664747,3.289576,0.37872517,-12.744934,2.9706059,-2.0135236,-0.17802706,-0.11264839,0.063514516,13.73595106,100.52934573,-27.2635498046875
1644887492344,217.75,-176.54688,-77.046875,6.0,-42.825,49.36875,-1.2661943,-0.33513376,0.85214436,-11.201871,-0.21068975,-1.5969325,-0.04167724,-0.09880036,-0.013182258,13.73595106,100.52934573,-27.2635498046875
1644887492446,217.1875,-176.3125,-76.953125,6.3,-42.75,48.99375,-2.7949505,1.808629,-0.18395185,-8.69155,-0.7134721,-0.57161564,-0.28241992,-0.33208638,0.21264714,13.73595106,100.52934573,-27.2635498046875
1644887492550,216.48438,-176.0,-77.078125,5.9625,-42.956253,49.74375,-1.6711512,-1.1092498,1.2863196,-8.926183,-0.6368576,0.7745243,-0.02676398,-0.21171506,0.1370156,13.73595106,100.52934573,-27.2635498046875
1644887492655,216.625,-176.125,-77.109375,6.675,-42.581253,49.706253,-2.4439888,1.202023,-0.08490431,-9.5013895,-0.80445176,-1.1994951,-0.18974464,-0.13608351,0.15086363,13.73595106,100.52934573,-27.2635498046875
1644887492756,216.34375,-175.98438,-77.5,6.1125,-42.1875,49.443752,-2.2860813,2.4132893,-1.6306746,-10.742185,1.3036429,2.3744495,-0.32289875,0.30172727,0.143407,13.73595106,100.52934573,-27.2635498046875
1644887492859,216.45312,-175.96875,-77.640625,5.2875004,-41.1375,49.143753,1.1532631,-3.018538,1.0311785,-7.0485296,-3.405752,2.4229321,0.015845342,0.04074516,0.016644266,13.73595106,100.52934573,-27.2635498046875
1644887492960,216.125,-175.64062,-77.734375,5.34375,-40.912502,49.818752,-0.69759464,-3.617038,2.0469134,-6.616975,-1.2162545,-1.5969325,0.25871846,-0.31823838,-0.05685681,13.73595106,100.52934573,-27.2635498046875
1644887493065,216.28125,-175.57812,-77.0625,6.1312504,-41.8125,49.0125,2.8560085,1.6462423,-2.2159076,-6.5068417,1.8495208,-6.9198413,-0.032090146,-0.013581721,-0.021704122,13.73595106,100.52934573,-27.2635498046875
1644887493174,215.92188,-175.375,-76.625,6.0937505,-41.30625,48.975002,2.5883088,0.42990237,-3.408867,-9.295488,-0.62249243,-0.504578,-0.122634955,0.19946489,-0.0014646954,13.73584751,100.5293322,-27.2691650390625
1644887493276,216.57812,-175.64062,-76.5625,6.3375,-41.325,48.693752,-0.2521305,-1.5878057,4.9440966,-10.181343,0.6374562,0.2669535,0.30984965,-0.17656237,-0.09413997,13.73584751,100.5293322,-27.2691650390625
1644887493376,216.59375,-175.625,-76.71875,6.4875,-41.8125,49.10625,-0.89911556,-0.008601904,0.65114355,-10.359112,1.9931729,-2.8089972,0.12876004,-0.023168819,-0.05259588,13.73584751,100.5293322,-27.2691650390625
1644887493478,216.6875,-175.6875,-76.734375,6.39375,-41.60625,48.018753,-1.3903389,0.4721225,-1.5775529,-10.723031,0.56563014,0.017357962,-0.14820054,0.1387466,0.0145138,13.73584751,100.5293322,-27.2691650390625
1644887493579,216.8125,-175.70312,-76.875,6.4875,-42.131252,48.656254,-1.5365067,1.2950704,3.8866038,-13.582905,1.0498575,2.297835,0.0115844095,0.18668209,0.013448567,13.73584751,100.5293322,-27.2691650390625
1644887493683,217.28125,-175.90625,-77.0,6.6000004,-42.9,49.612503,-1.5152798,0.20833403,0.479877,-8.768166,2.2427685,0.21428105,0.08508549,-0.11371362,-0.00998656,13.73584751,100.5293322,-27.2691650390625
1644887493787,217.45312,-176.03125,-77.0,7.7250004,-42.54375,49.800003,0.10721779,-0.6616787,0.2282511,-10.0903635,-1.0342951,-2.5552118,-0.038481545,-0.056191042,0.05392742,13.73584751,100.5293322,-27.2691650390625
1644887493890,217.625,-176.14062,-76.890625,6.8812504,-43.29375,49.3875,0.263175,-0.73942524,2.2848601,-7.441179,-1.1827357,2.4995465,-0.015046417,-0.09240896,0.054992653,13.73584751,100.5293322,-27.2691650390625
1644887493994,217.78125,-176.17188,-77.171875,5.90625,-41.1375,49.406254,1.6712294,-0.67044675,1.3981925,-8.0684595,1.0785879,-2.0518308,0.15539087,-0.04447348,-0.06963961,13.73584751,100.5293322,-27.2691650390625
1644887494097,217.82812,-176.17188,-77.171875,6.1125,-41.7,49.95,1.5251474,1.0147746,-0.41737282,-9.841366,0.66139823,-1.769315,-0.0629819,0.11531147,0.0038614697,13.73584751,100.5293322,-27.2691650390625
1644887494200,217.84375,-176.14062,-77.203125,4.93125,-41.60625,48.300003,-0.41091537,0.35306257,2.9512162,-12.2798605,0.7380127,-1.5346833,0.12556434,0.08974588,-0.012117025,13.73572873,100.52931656,-26.88958740234375
1644887494299,218.0625,-176.23438,-77.28125,6.0,-41.5875,48.881252,1.1901073,-0.9549245,0.4683845,-8.217499,0.57999533,-0.9696517,0.090411656,0.03967993,-0.033421688,13.73572873,100.52931656,-26.88958740234375
1644887494401,217.92188,-175.96875,-78.359375,6.3375,-41.643753,48.61875,-1.4861765,-0.054236412,2.599393,-11.460445,0.44113165,-0.74878657,0.07017223,-0.047669176,0.019839965,13.73572873,100.52931656,-26.88958740234375
1644887494504,218.01562,-175.9375,-78.28125,6.15,-42.037502,48.656254,-0.3489504,1.3136319,0.87391573,-9.664195,2.2140381,-0.4997896,-0.02676398,0.052462727,0.018774733,13.73572873,100.52931656,-26.88958740234375
1644887494611,217.92188,-175.85938,-78.296875,5.68125,-42.206253,48.91875,0.022382736,-1.1447728,2.104097,-9.726444,-0.29209262,-0.073621705,0.030758604,-0.04447348,-0.0025299285,13.73572873,100.52931656,-26.88958740234375
1644887494714,218.04688,-175.85938,-78.28125,4.5750003,-41.643753,49.2,-2.0230913,-0.45289415,5.4419436,-12.902951,0.38367084,2.211644,0.09360735,-0.054060575,-0.03768262,13.73572873,100.52931656,-26.88958740234375
1644887494814,218.04688,-175.82812,-78.1875,5.1375003,-41.193752,49.350002,-0.8787651,-1.6321757,2.9312627,-8.327632,0.4794389,-3.4799721,0.17349982,-0.2671072,-0.019573657,13.73572873,100.52931656,-26.88958740234375
1644887494923,218.10938,-175.85938,-78.203125,6.1125,-40.0125,48.91875,-2.1997137,2.068341,-0.7612612,-12.504915,0.694917,0.736217,-0.2664414,0.1898778,0.037948925,13.73572873,100.52931656,-26.88958740234375
1644887495015,217.59375,-175.32812,-81.25,5.11875,-40.575,48.43125,-2.4500828,1.090487,4.152132,-12.188881,0.973243,2.5761611,-0.061916668,-0.11158316,0.08268871,13.73572873,100.52931656,-26.88958740234375
1644887495124,217.70312,-175.4375,-81.25,5.4750004,-40.912502,49.893753,0.05517769,-1.034738,2.1464603,-8.974067,0.17776948,-0.4950012,0.10745538,-0.14993155,-0.028095521,13.73572873,100.52931656,-26.88958740234375
1644887495224,217.8125,-175.60938,-81.140625,5.4750004,-40.518753,49.0125,0.80925655,1.0043261,-0.46206856,-6.4110737,1.9452889,-1.697489,-0.035285845,-0.18295377,0.0177095,13.73560917,100.52929761,-26.588226318359375
1644887495325,218.0625,-175.73438,-81.125,5.6062503,-40.93125,49.893753,0.71183014,3.6062367,-1.5174978,-9.894038,2.4774003,-1.3958195,-0.23235396,0.09187635,0.03581846,13.73560917,100.52929761,-26.588226318359375
1644887495430,218.09375,-175.70312,-81.3125,5.30625,-40.48125,49.237503,-0.16843033,0.025804102,4.163442,-11.1970825,-1.0103531,1.6657659,-0.061916668,-0.046603944,0.016644266,13.73560917,100.52929761,-26.588226318359375
1644887495534,218.09375,-175.75,-81.46875,5.7937503,-41.5125,48.825,-0.3739748,-0.26421475,2.3494518,-10.200497,1.389834,-0.23642741,0.17882599,0.024766669,-0.03874785,13.73560917,100.52929761,-26.588226318359375
1644887495639,218.25,-175.8125,-81.71875,6.20625,-41.100002,48.956253,-0.14598083,-0.5193597,0.17880881,-8.557475,-0.58418524,0.60693014,-0.07363423,0.023701435,0.028361829,13.73560917,100.52929761,-26.588226318359375
1644887495743,218.42188,-175.90625,-81.9375,6.7875004,-40.725002,48.675003,-0.10735607,-0.55009973,2.3198998,-9.314642,0.17298107,0.91338795,0.044606633,-0.057256274,0.013448567,13.73560917,100.52929761,-26.588226318359375
1644887495846,218.46875,-175.96875,-81.921875,6.2250004,-41.268753,50.7,-0.24253082,-0.3855751,2.828293,-9.002797,-0.21068975,2.2068555,-0.0075897854,-0.032755915,0.030492295,13.73560917,100.52929761,-26.588226318359375
1644887495949,218.46875,-175.95312,-81.9375,5.4750004,-39.99375,49.612503,2.9317513,-1.0821102,2.3127782,-9.132084,-1.2545617,0.0700304,0.039280467,0.10998531,-0.07816147,13.73560917,100.52929761,-26.588226318359375
1644887496051,218.625,-176.03125,-81.9375,5.9437504,-41.100002,50.100002,0.9501791,-0.21258628,1.9208949,-10.013748,0.9103952,1.009156,0.10106398,0.15472509,-0.06857438,13.73560917,100.52929761,-26.588226318359375
1644887496154,218.5625,-175.95312,-82.015625,5.30625,-40.443752,50.100002,-0.98176765,0.6774198,0.86212075,-11.68131,2.3289597,0.58777654,0.07656363,0.111050546,-0.062182978,13.73560917,100.52929761,-26.588226318359375
1644887496258,218.71875,-176.0,-81.875,4.0687504,-39.80625,49.312504,-2.1749668,2.0762348,2.296959,-13.80377,3.2393548,0.37229836,0.13515145,0.101463445,-0.09733567,13.73549227,100.52927994,-27.144500732421875
1644887496359,218.67188,-175.96875,-81.859375,5.11875,-40.706253,49.537502,-1.2394629,2.2023094,-0.28266495,-12.855067,3.406949,-0.45190558,0.025432438,0.2260957,-0.08029194,13.73549227,100.52927994,-27.144500732421875
1644887496465,218.84375,-176.0625,-81.859375,4.9875,-39.6375,49.687504,-2.1865711,1.1981611,1.7373875,-12.620436,2.3720553,3.466804,-0.019307349,0.049267028,-0.04940018,13.73549227,100.52927994,-27.144500732421875
1644887496566,218.76562,-176.0,-81.875,5.0062504,-39.80625,49.518753,-3.1513643,-0.3443839,2.8624222,-13.602058,1.1216835,2.8538885,0.081889786,0.020505736,-0.00998656,13.73549227,100.52927994,-27.144500732421875
1644887496672,219.01562,-176.15625,-81.734375,4.425,-39.61875,49.275,-2.5697908,1.7651796,0.8794738,-11.724405,1.2509704,0.7697359,-0.11304785,-0.12862688,0.044340324,13.73549227,100.52927994,-27.144500732421875
1644887496775,219.0,-176.20312,-81.9375,5.2875004,-40.36875,48.937504,-3.090497,-0.98125887,3.6734686,-11.3167925,0.24480712,2.2547395,0.095737815,-0.22130217,0.050731722,13.73549227,100.52927994,-27.144500732421875
1644887496880,219.3125,-176.40625,-81.8125,5.6625004,-40.612503,48.43125,2.2575417,-0.63553643,0.07138538,-7.819463,-0.4405331,2.0153193,-0.047003407,0.101463445,-0.022769356,13.73549227,100.52927994,-27.144500732421875
1644887496982,219.21875,-176.3125,-81.96875,5.68125,-39.54375,48.91875,0.79517174,-2.812975,3.8535366,-7.8146744,-1.0055647,0.022146367,0.21610916,-0.05193011,-0.06431344,13.73549227,100.52927994,-27.144500732421875
1644887497088,219.29688,-176.375,-82.078125,5.1000004,-40.48125,49.331253,2.518303,-1.8181505,0.38825533,-7.120356,-1.8728642,1.0809821,-0.03422061,0.11850718,-0.012117025,13.73549227,100.52927994,-27.144500732421875
1644887497194,219.29688,-176.29688,-82.109375,5.5687504,-39.825,47.8875,3.486082,-2.209763,2.8746316,-7.129933,-0.90500826,0.15143326,0.16391273,0.066310756,-0.04940018,13.73538426,100.52926132,-27.46221923828125
1644887497292,219.4375,-176.35938,-82.03125,4.96875,-39.16875,48.393753,3.2754269,-2.052289,2.1906831,-6.679224,-1.3317747,1.234211,0.12343387,0.0023967742,-0.074965775,13.73538426,100.52926132,-27.46221923828125
1644887497392,219.23438,-176.20312,-82.0,5.7562504,-39.675003,48.80625,2.8685884,-1.6162714,0.5502114,-7.8625584,-0.90021986,-0.025737667,0.045671865,0.06950645,-0.04620448,13.73538426,100.52926132,-27.46221923828125
1644887497495,219.39062,-176.26562,-81.65625,5.1375003,-38.30625,47.8125,1.2705517,0.43965393,0.16952007,-9.045893,0.8242039,0.6452374,-0.025698747,0.09081112,0.0017310036,13.73538426,100.52926132,-27.46221923828125
1644887497596,219.26562,-176.21875,-81.75,5.49375,-39.73125,47.04375,-0.19582272,-0.058436662,1.7590533,-10.924144,0.374094,1.6226702,0.02969337,0.06844122,-0.016377958,13.73538426,100.52926132,-27.46221923828125
1644887497698,219.53125,-176.39062,-81.953125,5.4375,-39.825,47.662502,-0.9438629,-0.17620108,1.0913852,-11.130045,0.1921347,-0.2172738,0.007323477,-0.015712187,0.04220986,13.73538426,100.52926132,-27.46221923828125
1644887497800,219.5,-176.28125,-82.03125,4.59375,-40.4625,46.575,-0.37325287,-0.4998975,-0.02535291,-9.860519,0.42197806,1.1480197,-0.006524552,-0.01997312,0.02516613,13.73538426,100.52926132,-27.46221923828125
1644887497905,219.48438,-176.28125,-81.875,5.08125,-40.85625,46.21875,-0.28106785,-0.077230185,2.5781586,-10.617686,1.543063,2.058415,0.10532492,-0.05512581,-0.021704122,13.73538426,100.52926132,-27.46221923828125
1644887498009,219.46875,-176.25,-81.828125,4.8562503,-41.5875,45.506252,-0.6471491,-0.23348254,0.5190519,-10.157401,1.1935096,0.7170634,0.06804176,-0.015712187,-0.007856093,13.73538426,100.52926132,-27.46221923828125
1644887498110,220.78125,-177.39062,-86.046875,4.93125,-41.4,45.018753,-1.2016516,1.106231,0.45653272,-10.828376,1.816002,-0.54288524,0.012649642,-0.005059857,0.04647079,13.73538426,100.52926132,-27.46221923828125
1644887498213,220.35938,-3.09375,-86.90625,5.9812503,-42.956253,44.287502,-2.2641582,2.4656458,-1.9977899,-12.083536,3.0951042,-0.13108255,-0.10133029,0.06950645,-0.0035951615,13.73528824,100.5292428,-25.16314697265625
1644887498314,220.21875,-3.15625,-86.78125,5.4375,-43.443752,45.131252,0.3772211,-1.1002455,0.21229893,-10.497976,0.6853402,-0.6194997,0.12023818,0.03648423,-0.04940018,13.73528824,100.5292428,-25.16314697265625
1644887498421,220.15625,-3.296875,-86.65625,2.4375,-43.275,45.525,0.025501251,1.7082074,-1.089488,-10.814011,1.1504139,-1.2952632,-0.10985216,0.04607133,0.047536023,13.73528824,100.5292428,-25.16314697265625
1644887498521,220.0,-3.390625,-86.578125,0.09375,-43.631252,45.675003,-1.1478453,1.9170995,-0.7709108,-10.320207,2.7407625,-1.1133038,-0.019307349,-0.11051793,0.024100898,13.73528824,100.5292428,-25.16314697265625
1644887498626,220.20312,-3.28125,-86.71875,-0.31875002,-43.10625,46.21875,-1.8610554,0.65792483,1.6786628,-11.14441,1.2270284,1.857302,0.01904104,-0.065778136,0.05605789,13.73528824,100.5292428,-25.16314697265625
1644887498727,220.04688,-3.375,-86.625,-1.9312501,-43.425003,47.1375,-0.25576115,2.0849493,-0.41622758,-9.927557,0.87687635,-2.5312698,-0.15459195,-0.17762761,0.11251524,13.73528824,100.5292428,-25.16314697265625
1644887498835,220.1875,-3.34375,-86.640625,-1.9875001,-43.85625,49.74375,-3.0689478,0.10337043,1.3358715,-10.497976,-2.8215668,-0.16938977,-0.17376614,-0.21491076,0.17749445,13.73528824,100.5292428,-25.16314697265625
1644887498938,220.04688,-3.4375,-86.53125,-1.5187501,-43.21875,50.062504,-0.03888321,0.26250768,-0.21583247,-7.345411,-1.4036007,1.1719618,-0.19400556,-0.095604666,0.08694965,13.73528824,100.5292428,-25.16314697265625
1644887499039,220.39062,-3.140625,-86.765625,-0.24375,-43.425003,51.3375,-1.7819977,-1.3558465,-0.22973531,-8.073248,-2.1362264,1.4263457,-0.0661776,-0.19147563,0.09866721,13.73528824,100.5292428,-25.16314697265625
1644887499144,220.14062,-3.25,-86.671875,0.63750005,-43.518753,51.45,2.0115042,-1.8736428,0.56626236,-6.2913637,-1.882441,-0.9935937,-0.019307349,-0.23088926,0.04540556,13.73528824,100.5292428,-25.16314697265625
1644887499249,220.21875,-3.265625,-86.6875,1.4625001,-43.2,50.943752,0.9896774,1.1032505,-1.3730712,-9.1272955,5.985504E-4,-0.74399817,-0.12050448,-0.0029293909,0.004926703,13.7351843,100.52922443,-24.70623779296875
1644887499354,220.20312,-3.203125,-86.765625,2.7,-44.5875,51.318752,1.3995371,-1.159869,0.2549049,-8.911818,-0.9911995,0.38187516,0.01904104,0.12170287,-0.03448692,13.7351843,100.52922443,-24.70623779296875
1644887499452,220.3125,-3.125,-86.8125,3.16875,-43.537502,51.16875,0.38991165,-1.013108,-0.28290576,-8.5862055,0.32142156,-0.9068039,0.021171506,-0.01997312,0.011318101,13.7351843,100.52922443,-24.70623779296875
1644887499557,220.40625,-3.109375,-86.828125,3.61875,-43.350002,52.237503,1.1477423,-0.5512379,-1.5167087,-10.004171,-0.7182605,-2.042254,-0.0011983871,0.12170287,0.018774733,13.7351843,100.52922443,-24.70623779296875
1644887499656,220.29688,-3.078125,-86.828125,3.8812501,-43.425003,51.61875,1.1211615,-1.0344607,1.8376404,-10.07121,-1.1348516,0.760159,0.026497671,-0.040212546,-0.029160755,13.7351843,100.52922443,-24.70623779296875
1644887499762,220.32812,-3.03125,-86.921875,4.0687504,-43.4625,51.881252,1.3444967,0.41601753,-0.10958369,-12.140997,1.0929531,-1.328782,0.08402026,0.24420467,-0.111183695,13.7351843,100.52922443,-24.70623779296875
1644887499871,220.15625,-3.1875,-86.78125,4.5750003,-44.006252,51.393753,1.6425924,-1.6752558,1.5080814,-10.301053,-0.60812724,0.3196259,0.119172946,0.11957241,-0.07283531,13.7351843,100.52922443,-24.70623779296875
1644887499976,220.1875,-3.171875,-86.75,4.05,-42.46875,52.0125,-0.20578289,0.0887841,-0.38295215,-11.206659,0.44592008,-2.2008698,0.016910573,0.087615415,-0.016377958,13.7351843,100.52922443,-24.70623779296875
1644887500077,219.9375,-3.34375,-86.546875,3.7500002,-43.537502,51.206253,1.1912298,-0.7207341,-1.6577835,-9.045893,0.2160767,-1.0941502,-0.0118507175,0.09826775,-0.04194355,13.7351843,100.52922443,-24.70623779296875
1644887500183,219.82812,-3.375,-86.5625,4.425,-42.28125,51.45,1.9934492,-1.0059793,0.4307388,-8.696339,0.28311434,0.11791443,0.10532492,0.01837527,-0.09094427,13.73510155,100.52921457,-24.23443603515625
1644887500284,219.75,-3.359375,-86.625,4.21875,-42.9,50.475002,2.094699,-1.556821,1.3841624,-9.31943,-0.6655881,-1.1180922,0.12982528,-0.0039946237,-0.07283531,13.73510155,100.52921457,-24.23443603515625
1644887500386,219.65625,-3.375,-86.609375,4.33125,-42.318752,50.906254,1.7308397,-1.6128495,1.7248381,-8.289325,-0.6751649,-0.43754035,0.097868286,-0.009320789,-0.033421688,13.73510155,100.52921457,-24.23443603515625
1644887500495,219.67188,-3.28125,-86.671875,3.99375,-42.825,50.250004,1.0024796,0.654119,-0.9326712,-8.54311,0.96306765,-1.271321,-0.004394086,0.04713656,0.0059919357,13.73510155,100.52921457,-24.23443603515625
1644887500597,219.54688,-3.296875,-86.578125,3.9750001,-43.0875,50.8875,1.3725195,0.9728942,-2.5098543,-10.4644575,2.3385365,-1.3000516,0.046737097,0.2260957,-0.088813804,13.73510155,100.52921457,-24.23443603515625
1644887500696,219.4375,-3.328125,-86.5,3.6750002,-43.78125,50.943752,1.2768154,-2.0758483,-0.7377942,-9.184756,-0.61291564,-0.31304187,0.12769482,0.10998531,-0.09307474,13.73510155,100.52921457,-24.23443603515625
1644887500799,219.46875,-3.25,-86.625,3.16875,-43.912502,48.581253,-0.33491707,-0.96582067,-0.33221802,-11.724405,1.3323733,-0.44232875,0.14260808,0.10572438,-0.10266183,13.73510155,100.52921457,-24.23443603515625
1644887500901,219.51562,-3.234375,-86.671875,3.6750002,-43.518753,45.675003,0.8152485,0.6430325,-1.4410126,-10.5841675,2.5492263,-3.0005333,0.18308693,0.17922546,-0.1047923,13.73510155,100.52921457,-24.23443603515625
1644887501010,219.60938,-3.140625,-86.796875,7.65,-46.987503,42.393753,0.9952984,0.015227169,0.63582355,-10.770915,1.0307038,-0.15023616,0.19906542,0.26977026,-0.16764104,13.73510155,100.52921457,-24.23443603515625
1644887501113,219.625,-3.03125,-86.875,15.075001,-50.5875,39.35625,-2.1847286,0.516543,-0.6410841,-11.240178,-3.3435028,-0.41838676,-0.32822493,-0.14460538,0.10505861,13.73510155,100.52921457,-24.23443603515625
1644887501222,219.92188,-2.890625,-87.046875,20.325,-51.80625,43.706253,-1.8417091,0.27573633,1.7882423,-9.295488,-0.30166942,-2.1721394,0.02223674,-0.36936954,0.004926703,13.73501276,100.52920647,-24.789764404296875
1644887501317,220.1875,-2.625,-87.296875,22.95,-51.61875,47.8875,-4.713687,2.603773,-2.0358963,-9.582792,3.7181952,-1.6017209,-0.1918751,-0.43328354,0.17536399,13.73501276,100.52920647,-24.789764404296875
1644887501424,220.46875,-2.296875,-87.625,19.63125,-50.250004,54.43125,-2.7431288,2.4090395,-1.1512257,-9.702502,-0.79966336,2.6144683,-0.40066078,-0.17762761,0.16364643,13.73501276,100.52920647,-24.789764404296875
1644887501523,220.60938,-2.15625,-87.703125,12.618751,-47.98125,57.487503,-4.8345823,-0.23168916,1.2747754,-10.507553,-0.2777274,3.7882257,-0.21957116,-0.30545557,0.1402113,13.73501276,100.52920647,-24.789764404296875
1644887501624,220.95312,-1.828125,-88.0625,5.1000004,-46.162502,56.2125,-1.445179,-0.7950653,2.6215448,-7.833828,-0.31603462,-0.38486794,0.07975932,-0.23515019,0.09121058,13.73501276,100.52920647,-24.789764404296875
1644887501726,220.78125,-1.875,-87.78125,3.0187502,-46.0875,49.631252,5.874812,-1.3694007,1.2355279,-4.135385,-1.7770962,0.89423436,-0.009720251,0.038614698,-0.033421688,13.73501276,100.52920647,-24.789764404296875
1644887501834,220.875,-1.828125,-87.6875,8.15625,-44.8875,46.03125,4.3630877,-0.10605523,-1.9638224,-8.825626,2.1757307,-3.6092591,0.24913137,0.3123796,-0.15592349,13.73501276,100.52920647,-24.789764404296875
1644887501938,220.5625,-2.046875,-87.53125,10.1625,-44.362503,44.643753,-3.4164972,4.2657843,-0.8993648,-17.961899,7.8050976,-1.7932571,0.12449911,0.18029068,-0.15698871,13.73501276,100.52920647,-24.789764404296875
1644887502040,220.45312,-2.1875,-87.484375,14.418751,-42.35625,45.131252,1.0208693,-1.2436894,-5.8433123,-5.7161565,-4.613028,2.7246015,-0.41876975,0.17602976,0.20412529,13.73501276,100.52920647,-24.789764404296875
1644887502146,219.9375,-2.40625,-87.15625,18.487501,-40.575,48.037502,-3.372404,1.0151751,3.7786138,-12.495338,0.40282443,1.9003977,-0.036351077,-0.19467133,0.050731722,13.73501276,100.52920647,-24.789764404296875
1644887502248,220.34375,-2.25,-87.375,18.75,-42.112503,52.125004,-1.9933252,-0.96195334,-2.7876236,-7.489063,1.1935096,-0.3513491,-0.02676398,-0.15525772,0.051796954,13.73492249,100.52919254,-27.903900146484375
1644887502347,219.82812,-2.5,-87.015625,15.262501,-41.7,55.331253,-1.5751925,-0.61939204,2.5580583,-9.692925,0.38845924,-0.3705027,0.09360735,-0.08921327,0.11997187,13.73492249,100.52919254,-27.903900146484375
1644887502449,219.57812,-2.609375,-86.96875,11.681251,-40.706253,53.79375,-0.80653954,-0.59866095,0.6314157,-10.4883995,-1.5089456,0.7745243,-0.056590505,0.06737599,0.037948925,13.73492249,100.52919254,-27.903900146484375
1644887502552,219.5,-2.5625,-86.859375,9.675,-41.15625,53.756252,1.1179333,-1.6551436,1.6982244,-8.18398,-2.48159,-1.3239936,-0.0022636203,-0.0711043,0.044340324,13.73492249,100.52919254,-27.903900146484375
1644887502655,219.125,-2.90625,-86.703125,8.2875,-41.5125,53.5125,2.5588274,-0.01992014,-0.2842089,-7.9152308,0.87687635,-3.1920695,0.05738943,0.094006814,-0.023834588,13.73492249,100.52919254,-27.903900146484375
1644887502757,218.73438,-3.21875,-86.625,7.36875,-40.95,53.381252,2.6476555,0.019418508,-0.10073975,-7.565677,0.56563014,1.0761937,-0.054460037,0.1898778,-0.029160755,13.73492249,100.52919254,-27.903900146484375
1644887502865,218.57812,-3.296875,-86.671875,6.15,-40.575,52.74375,-0.640048,-0.56332237,0.8400839,-10.550649,1.1504139,0.7793127,0.12343387,0.013049104,-0.05685681,13.73492249,100.52919254,-27.903900146484375
1644887502967,218.40625,-3.453125,-86.53125,5.55,-40.18125,51.99375,0.57231236,-0.25021386,-0.8388094,-9.415198,0.3357868,-0.7009025,-0.02037258,0.087615415,-0.029160755,13.73492249,100.52919254,-27.903900146484375
1644887503070,218.42188,-3.421875,-86.5625,5.55,-40.85625,51.562504,-2.1868916,-1.2149348,3.1160624,-11.686098,-0.4405331,2.5139117,0.109585844,-0.12862688,0.0017310036,13.73492249,100.52919254,-27.903900146484375
1644887503172,218.32812,-3.421875,-86.5625,5.71875,-40.6875,50.456253,0.67024803,-0.2319543,-0.41138825,-8.701127,2.5061307,-1.5825673,0.22569625,0.0034620073,-0.09094427,13.73492249,100.52919254,-27.903900146484375
1644887503279,218.34375,-3.40625,-86.53125,5.2125,-40.875,50.475002,0.95826054,0.7975241,0.080776125,-11.992557,1.447295,-1.1468226,0.05419373,0.17816022,-0.036617383,13.73483173,100.52918085,-27.167755126953125
1644887503379,218.28125,-3.421875,-86.515625,6.4500003,-41.5875,49.912502,1.6653862,-1.9552109,-0.10466653,-10.483611,-0.33039984,0.5590461,0.15539087,0.17602976,-0.088813804,13.73483173,100.52918085,-27.167755126953125
1644887503485,218.46875,-3.421875,-86.484375,6.2625003,-41.025,49.500004,-1.6152115,2.6155534,0.8637966,-13.223775,4.1012673,0.065242,0.039280467,-0.010386022,-0.018508423,13.73483173,100.52918085,-27.167755126953125
1644887503585,218.26562,-3.546875,-86.34375,6.6562505,-41.362503,50.1375,1.2499266,-1.3129294,-0.1513977,-9.443929,0.27353755,0.52073884,0.10532492,0.11424624,-0.050465416,13.73483173,100.52918085,-27.167755126953125
1644887503686,218.3125,-3.59375,-86.296875,6.9750004,-41.550003,50.2125,0.99668694,-0.6745603,0.317384,-10.4644575,0.7380127,-0.58119243,0.14793424,0.19307348,-0.06857438,13.73483173,100.52918085,-27.167755126953125
1644887503787,218.3125,-3.703125,-86.09375,7.8750005,-41.60625,49.406254,0.8245764,1.0884851,0.24696241,-12.644378,3.2968156,-2.8281507,0.15752134,0.116376705,-0.10266183,13.73483173,100.52918085,-27.167755126953125
1644887503893,218.21875,-3.796875,-85.953125,7.33125,-41.8875,49.275,-1.611824,2.2935476,-1.5220919,-12.294226,3.0855274,-2.9526494,-1.3315413E-4,-0.0039946237,0.008122402,13.73483173,100.52918085,-27.167755126953125
1644887503995,218.35938,-3.828125,-85.984375,6.7500005,-40.74375,49.312504,-4.4349756,2.9995868,-1.0717402,-14.977528,3.2585084,-1.0271125,-0.09813459,0.09613728,0.0059919357,13.73483173,100.52918085,-27.167755126953125
1644887504096,218.14062,-3.984375,-85.796875,7.0875,-40.818752,48.131252,-5.3614645,3.4505992,-0.90720636,-13.554174,3.210026,0.80325466,-0.20039697,-0.13395305,0.13808084,13.73483173,100.52918085,-27.167755126953125
1644887504199,218.29688,-3.984375,-85.828125,5.5687504,-41.0625,48.487503,-4.8279295,1.1407557,2.1808186,-13.654731,0.0676362,0.39624038,-0.116243556,-0.25325915,0.12849373,13.73473892,100.52917447,-27.09869384765625
1644887504298,218.15625,-4.109375,-85.6875,5.6062503,-40.4625,48.581253,-3.1887589,0.6071483,1.5710114,-12.644378,0.4938041,1.9147629,-0.08428656,-0.116909325,0.04860126,13.73473892,100.52917447,-27.09869384765625
1644887504404,218.26562,-4.109375,-85.765625,5.49375,-40.612503,48.787502,-0.49241352,1.090971,-0.8839451,-8.413823,1.7489643,-2.617461,-0.027829213,-0.21064983,0.041144624,13.73473892,100.52917447,-27.09869384765625
1644887504511,218.07812,-4.203125,-85.625,6.3562503,-41.475002,49.050003,1.5999737,-1.4649384,-0.6164505,-5.759252,-1.0582372,0.4201824,-0.036351077,-0.029560216,0.028361829,13.73473892,100.52917447,-27.09869384765625
1644887504615,218.1875,-4.09375,-85.8125,6.8250003,-42.581253,49.818752,3.4349813,-1.9257612,-0.080250174,-7.2448545,-0.45489833,-1.4341269,0.11597724,0.15685557,-0.1047923,13.73473892,100.52917447,-27.09869384765625
1644887504717,218.21875,-4.046875,-85.765625,6.4500003,-42.393753,49.256252,2.2246132,-0.4420412,0.094662726,-9.1272955,0.6805518,-1.4532804,0.046737097,-0.014646954,-0.067509145,13.73473892,100.52917447,-27.09869384765625
1644887504822,218.34375,-3.984375,-85.890625,6.6562505,-42.5625,50.662502,0.86835384,1.1763519,-3.302735,-9.965864,2.3385365,-0.9115923,-0.057655737,0.20798674,-0.022769356,13.73473892,100.52917447,-27.09869384765625
1644887504923,218.20312,-4.03125,-85.84375,6.61875,-42.35625,49.29375,0.6847515,0.3283522,0.49530485,-8.921394,-0.49799395,-0.24121583,-0.060851436,0.0055924733,0.028361829,13.73473892,100.52917447,-27.09869384765625
1644887505023,218.35938,-3.84375,-86.03125,7.36875,-42.16875,49.631252,0.5870085,-1.0167929,-2.0339217,-9.4535055,0.05805939,-2.0907366,0.042476166,0.1898778,-0.015312725,13.73473892,100.52917447,-27.09869384765625
1644887505122,218.20312,-4.015625,-85.8125,6.6562505,-41.268753,48.99375,0.8766432,0.31597418,-0.57080823,-7.704541,-1.8441339,0.0077811554,-0.21424499,-0.032755915,0.09014534,13.73473892,100.52917447,-27.09869384765625
1644887505224,217.95312,-4.15625,-85.6875,6.8437505,-41.925003,49.0875,1.2020655,-1.2128468,-0.21984154,-7.9870567,-1.4802152,-1.1468226,-0.052329574,-0.01997312,0.08162348,13.73465355,100.52916281,-27.466461181640625
1644887505326,217.92188,-4.140625,-85.734375,6.5625005,-41.86875,50.2125,1.7384205,-0.3391896,1.4041609,-5.8023477,-0.34476504,-0.0017956513,-0.045938175,-0.2127803,0.034753226,13.73465355,100.52916281,-27.466461181640625
1644887505429,217.75,-4.21875,-85.703125,6.61875,-41.0625,49.162502,2.3617578,-2.824615,-0.11755937,-6.3871317,-2.730587,0.4345476,0.016910573,0.059919357,0.027296597,13.73465355,100.52916281,-27.466461181640625
1644887505530,217.82812,-4.203125,-85.71875,7.05,-41.643753,49.143753,3.3888898,-1.4788101,-0.53096443,-6.6983776,-0.94331545,-1.0845734,-0.004394086,0.009853406,-0.044074018,13.73465355,100.52916281,-27.466461181640625
1644887505635,217.70312,-4.265625,-85.578125,8.55,-41.325,49.050003,2.8755946,-1.49049,-2.1311932,-7.503428,0.10594343,-1.6687586,0.104259685,0.2484656,-0.07390054,13.73465355,100.52916281,-27.466461181640625
1644887505742,217.85938,-4.1875,-85.6875,7.6875005,-42.225002,49.443752,1.3817616,-0.4706885,-0.6269766,-9.324219,0.46507367,-0.480636,0.021171506,0.059919357,-0.03448692,13.73465355,100.52916281,-27.466461181640625
1644887505848,217.53125,-4.375,-85.453125,7.51875,-41.9625,49.612503,-1.35149,0.34491777,0.97842956,-13.199833,1.1264719,-0.17417817,0.07975932,0.16005126,-0.07390054,13.73465355,100.52916281,-27.466461181640625
1644887505952,217.64062,-4.28125,-85.609375,7.0687504,-41.2125,48.768753,-1.3568935,1.2548606,-0.46762645,-11.120468,2.4247277,-1.5586253,0.024367206,-0.08175664,-0.028095521,13.73465355,100.52916281,-27.466461181640625
1644887506057,217.5625,-4.28125,-85.578125,6.1125,-41.41875,48.937504,0.015212059,0.8631302,-0.6370239,-9.716867,0.6853402,-0.7679402,-0.09067796,-0.005059857,6.657706E-4,13.73465355,100.52916281,-27.466461181640625
1644887506167,217.60938,-4.25,-85.640625,7.1062503,-41.362503,49.518753,-0.82462406,1.5021126,-0.5887656,-10.689512,2.582745,-1.3910311,0.032889068,-7.9892477E-4,6.657706E-4,13.73465355,100.52916281,-27.466461181640625
1644887506271,217.5,-4.328125,-85.53125,7.6312504,-42.131252,49.125004,-1.2633562,1.2966902,0.6242633,-9.788693,1.6962919,0.20470424,-0.049133874,-0.074300006,0.05392742,13.7345623,100.52914584,-27.1087646484375
1644887506371,217.5625,-4.203125,-85.65625,6.9750004,-42.28125,49.18125,-1.5900097,1.1554658,-0.67080855,-10.703877,0.9876082,-0.66259533,-0.10452599,-0.08282187,0.036883693,13.7345623,100.52914584,-27.1087646484375
1644887506473,217.67188,-4.140625,-85.71875,6.5062504,-41.193752,49.29375,-1.2985277,2.124759,0.96870196,-11.901577,1.9357121,-1.1085154,-0.06724283,-0.086017564,0.0177095,13.7345623,100.52914584,-27.1087646484375
1644887506580,217.73438,-3.96875,-86.03125,7.3500004,-42.43125,48.468754,-1.7854538,-0.19062138,1.9226689,-9.783905,-0.5746084,1.977012,-0.056590505,-0.13075735,0.07416685,13.7345623,100.52914584,-27.1087646484375
1644887506682,217.89062,-3.859375,-86.140625,6.8812504,-40.987503,50.025,-2.0499115,-0.19389659,-0.7308319,-9.922769,-0.545878,0.060453594,-0.059786204,-0.07003907,0.06564499,13.7345623,100.52914584,-27.1087646484375
1644887506783,217.78125,-3.859375,-86.140625,5.5687504,-41.4,50.006252,-0.78019047,1.4034363,0.69313306,-10.435727,1.7345991,-0.85413146,-0.015046417,-0.10412653,0.015579033,13.7345623,100.52914584,-27.1087646484375
1644887506885,217.89062,-3.78125,-86.21875,6.1875005,-41.53125,49.29375,-1.0681267,-0.17005089,-0.17384917,-9.750386,1.0690111,1.359308,-0.013981183,-0.023168819,-0.007856093,13.7345623,100.52914584,-27.1087646484375
1644887506989,217.75,-3.84375,-86.15625,5.08125,-40.74375,49.218754,0.19599152,-0.29535842,-0.45141342,-8.533533,0.3549404,0.30526072,-0.042742476,-0.026364516,0.033687994,13.7345623,100.52914584,-27.1087646484375
1644887507092,217.71875,-3.84375,-86.15625,5.9812503,-41.362503,49.256252,0.30700493,-0.23722154,1.676174,-9.252393,0.86251116,1.0714053,0.10319445,0.0013315412,-0.017443191,13.7345623,100.52914584,-27.1087646484375
1644887507200,217.82812,-3.765625,-86.21875,5.7937503,-40.7625,49.331253,-1.4014816,0.8808616,0.047781587,-11.043854,1.7441759,-0.9211691,-0.013981183,-0.07856093,-0.016377958,13.73447043,100.52912622,-26.570587158203125
1644887507299,217.89062,-3.703125,-86.28125,5.83125,-39.91875,49.18125,-0.6327419,-1.4841774,-0.05968094,-10.766127,1.0690111,-0.7152678,0.15432563,0.0290276,-0.051530648,13.73447043,100.52912622,-26.570587158203125
1644887507409,217.85938,-3.75,-86.25,6.39375,-40.331253,49.237503,-2.372795,3.4159517,-0.30388653,-12.404359,2.7647045,-0.27473465,-0.18015754,-0.08282187,0.06777545,13.73447043,100.52912622,-26.570587158203125
1644887507510,218.04688,-3.65625,-86.34375,5.5125003,-40.3875,48.825,-2.0006323,1.7499511,-0.14539447,-11.206659,1.7393875,-0.42796355,-0.08428656,-0.064712904,0.069905914,13.73447043,100.52912622,-26.570587158203125
1644887507611,218.0,-3.65625,-86.328125,6.1125,-41.081253,49.406254,-1.0339174,1.1067021,-0.16064417,-11.3551,1.1312603,-0.43754035,-0.077895164,0.015179571,0.012383334,13.73447043,100.52912622,-26.570587158203125
1644887507717,218.15625,-3.6875,-86.3125,4.8562503,-40.85625,49.10625,-1.5248146,-0.35288304,1.7931192,-9.563639,-0.4213795,-0.9115923,0.012649642,-0.215976,0.07629731,13.73447043,100.52912622,-26.570587158203125
1644887507819,217.95312,-3.75,-86.25,6.4875,-40.48125,49.443752,-0.28265858,0.5341169,-0.5409647,-8.681973,0.17776948,-0.54288524,-0.12583065,-0.15099677,0.09227581,13.73447043,100.52912622,-26.570587158203125
1644887507926,218.71875,-3.109375,-86.78125,6.9750004,-40.4625,48.825,0.9680748,-0.547344,0.8653042,-9.281123,0.3453636,0.30526072,0.066976525,0.03967993,-0.033421688,13.73447043,100.52912622,-26.570587158203125
1644887508027,218.6875,-3.09375,-86.734375,6.8812504,-40.3875,48.506252,1.1203241,-0.7195248,0.37952712,-9.539697,0.40761283,0.4345476,0.058454663,0.09613728,-0.054726347,13.73447043,100.52912622,-26.570587158203125
1644887508134,218.70312,-3.125,-86.703125,6.6000004,-40.03125,48.99375,-0.3938961,0.69364977,-0.8922298,-10.689512,1.567005,0.9564836,-0.035285845,0.072702155,0.0038614697,13.73447043,100.52912622,-26.570587158203125
1644887508236,218.92188,-2.90625,-87.0,6.7875004,-40.537502,48.281254,-1.9888725,0.094894886,1.5510093,-11.504139,1.7154455,1.2150574,0.10319445,2.6630826E-4,-0.025965055,13.73438294,100.52911114,-26.80499267578125
1644887508340,219.03125,-2.859375,-87.0625,6.9187503,-39.975002,48.54375,0.07301903,0.727522,-0.27752423,-10.617686,1.4377182,-1.0606314,0.038215235,0.08548495,-0.016377958,13.73438294,100.52911114,-26.80499267578125
1644887508438,218.8125,-3.109375,-86.84375,7.7625003,-40.29375,48.881252,-1.547143,-0.022268295,-0.31107956,-10.243592,-0.21547815,1.3497312,-0.10239553,-0.06364767,0.07416685,13.73438294,100.52911114,-26.80499267578125
1644887508545,218.89062,-3.078125,-86.890625,7.9500003,-38.90625,48.825,-4.4361897,1.0121031,2.7040892,-13.602058,1.4281414,1.9339164,0.00838871,-0.20745413,0.05712312,13.73438294,100.52911114,-26.80499267578125
1644887508648,218.75,-3.171875,-86.796875,8.231251,-39.45,49.4625,-0.31312656,2.5887628,-0.3617605,-9.544485,1.543063,0.49679685,-0.19720127,-0.018907886,0.08268871,13.73438294,100.52911114,-26.80499267578125
1644887508750,218.76562,-3.15625,-86.796875,8.025001,-38.662502,49.312504,-5.248684,2.8753526,-1.090231,-13.11843,4.0916905,0.5351041,-0.06830807,-0.11584409,0.069905914,13.73438294,100.52911114,-26.80499267578125
1644887508858,218.75,-3.203125,-86.703125,6.6937504,-39.412502,49.443752,-2.5605059,3.1685934,-1.644319,-11.599907,2.4438813,-1.7597382,-0.20359266,-0.10412653,0.1370156,13.73438294,100.52911114,-26.80499267578125
1644887508963,218.89062,-3.15625,-86.796875,7.36875,-39.506252,49.500004,-3.168437,0.618932,1.6524961,-10.651205,1.3036429,1.5173253,-0.009720251,-0.14140968,0.08162348,13.73438294,100.52911114,-26.80499267578125
1644887509065,218.90625,-3.15625,-86.8125,5.86875,-39.45,49.312504,0.8585644,0.7435951,-0.37491778,-9.5492735,1.2988545,-1.697489,0.039280467,0.06844122,-0.025965055,13.73438294,100.52911114,-26.80499267578125
1644887509168,218.60938,-3.296875,-86.671875,5.8875003,-39.7125,48.937504,0.62209797,-0.30512035,-0.5534243,-9.074623,0.29747957,0.050876785,-0.04061201,0.055658426,-0.019573657,13.73438294,100.52911114,-26.80499267578125
1644887509274,218.75,-3.265625,-86.71875,6.0937505,-39.99375,49.143753,0.4831276,0.821405,0.1518198,-10.1861315,1.6244658,-0.84934306,0.0115844095,-0.013581721,-0.0067908606,13.73429968,100.52909799,-26.523162841796875
1644887509377,218.76562,-3.265625,-86.71875,6.3750005,-40.706253,49.18125,0.1280117,1.5483224,-0.55122215,-10.373477,1.3850456,0.48722005,-0.0949389,0.01837527,0.013448567,13.73429968,100.52909799,-26.523162841796875
1644887509480,218.79688,-3.25,-86.75,5.53125,-39.693752,48.15,-0.7460356,0.30083448,0.6225815,-10.751761,0.75716627,0.59735334,-0.008655018,-0.015712187,0.02197043,13.73429968,100.52909799,-26.523162841796875
1644887509580,218.84375,-3.234375,-86.765625,6.4687505,-40.3125,48.318752,-0.5419636,-0.51436746,0.66703194,-10.267534,-0.0664391,1.0761937,-0.015046417,-0.010386022,6.657706E-4,13.73429968,100.52909799,-26.523162841796875
1644887509683,219.20312,-2.8125,-86.875,6.675,-40.0875,48.075,1.0429935,0.036021948,0.5351569,-9.233239,-0.018555064,-0.9552865,0.013714875,-0.014646954,-0.018508423,13.73429968,100.52909799,-26.523162841796875
1644887509785,219.28125,-2.78125,-86.90625,6.8625,-40.3875,49.29375,0.43525982,0.3297853,-0.3144652,-9.396045,1.365892,0.11312603,0.045671865,0.06418029,-0.021704122,13.73429968,100.52909799,-26.523162841796875
1644887509888,219.07812,-3.015625,-86.734375,7.425,-40.425003,48.862503,1.828022,-0.7403167,-0.38074753,-8.222287,-1.6861166,1.4407109,-0.10985216,0.06737599,0.011318101,13.73429968,100.52909799,-26.523162841796875
1644887509996,218.34375,-3.765625,-86.0625,7.18125,-39.99375,49.425003,-0.5222988,-0.45517462,1.203911,-9.5253315,0.15382746,0.61171854,0.004127778,-0.116909325,-0.0046603945,13.73429968,100.52909799,-26.523162841796875
1644887510098,218.3125,-3.828125,-86.109375,7.74375,-40.125,50.156254,0.5298872,-1.6757495,0.6997763,-8.370728,-1.8728642,1.4790181,-0.055525273,-0.079626165,0.05925359,13.73429968,100.52909799,-26.523162841796875
1644887510202,218.39062,-3.78125,-86.15625,7.8,-40.18125,49.237503,0.29574203,0.6860667,0.8034115,-9.156026,0.919972,-0.7009025,-0.0075897854,-0.0902785,0.0027962367,13.73422096,100.52908093,-26.1739501953125
1644887510308,218.3125,-3.8125,-86.125,6.9750004,-39.600002,48.937504,-0.7560129,-0.74131435,2.0241234,-10.641628,-0.14784196,0.8367735,0.055258963,-0.0711043,-0.008921326,13.73422096,100.52908093,-26.1739501953125
1644887510409,218.29688,-3.859375,-86.046875,7.2187505,-39.600002,48.54375,1.5275068,-0.6517922,-0.61949253,-7.85777,0.4985925,-0.504578,0.048867565,0.03967993,-0.012117025,13.73422096,100.52908093,-26.1739501953125
1644887510516,218.29688,-3.875,-86.015625,7.8,-39.09375,49.10625,-0.7985687,-1.075532,0.84710306,-9.870096,0.44113165,2.4612393,0.07123746,0.020505736,-0.027030287,13.73422096,100.52908093,-26.1739501953125
1644887510614,218.35938,-3.828125,-86.015625,6.95625,-39.5625,48.956253,-0.15467739,0.53820884,0.027517356,-10.095152,2.0458453,-1.103727,0.08721595,0.0045272405,-0.036617383,13.73422096,100.52908093,-26.1739501953125
1644887510716,218.26562,-3.875,-85.984375,7.3875003,-39.693752,48.80625,0.077246666,0.9066853,-0.9782266,-10.794857,1.389834,0.36750996,-0.04061201,0.09613728,-0.007856093,13.73422096,100.52908093,-26.1739501953125
1644887510819,218.85938,-3.296875,-86.53125,7.05,-39.61875,49.631252,-1.8718748,-1.4596916,-0.0050387457,-9.755175,0.87208796,3.0071173,0.06378083,0.022636201,-0.0046603945,13.73422096,100.52908093,-26.1739501953125
1644887510932,218.9375,-3.234375,-86.59375,6.6937504,-39.5625,48.862503,-0.011918068,0.53786814,-1.2577667,-9.788693,0.31184477,-0.7966706,-0.11304785,-0.033821147,0.03901416,13.73422096,100.52908093,-26.1739501953125
1644887511028,219.0,-3.234375,-86.578125,6.7312503,-38.662502,48.206253,-1.1134653,1.2690996,0.22631605,-10.679935,0.96306765,0.5590461,-0.0949389,-0.056191042,0.04220986,13.73422096,100.52908093,-26.1739501953125
1644887511130,219.01562,-3.234375,-86.578125,6.3375,-39.1875,48.412502,-1.1311417,0.61080503,0.7444243,-11.450869,0.9343372,-0.27952304,0.025432438,-0.045538712,0.011318101,13.73422096,100.52908093,-26.1739501953125
1644887511237,219.40625,-2.796875,-87.09375,7.8375,-38.53125,48.318752,-0.43419456,0.44279367,-0.3839735,-10.397419,0.019752163,-1.2521675,-0.06511237,-0.015712187,0.018774733,13.73415107,100.52906343,-28.3126220703125
1644887511337,219.54688,-2.703125,-87.203125,7.2562504,-38.775,49.18125,-1.3760071,0.3137669,0.49476057,-11.029489,0.6901286,0.33877954,-0.024633514,-0.042343013,0.0177095,13.73415107,100.52906343,-28.3126220703125
1644887511443,219.0625,-3.1875,-86.8125,7.425,-38.8875,49.593754,-1.9167976,2.4810677,-1.1581199,-11.225813,2.405574,-1.2330139,-0.114113085,-0.07536524,0.029427063,13.73415107,100.52906343,-28.3126220703125
1644887511536,218.60938,-3.6875,-86.296875,6.9,-39.206253,48.3375,2.0241737,-1.2568147,-0.99578106,-8.140884,0.66618663,-0.8972271,0.08402026,0.095072046,-0.08455287,13.73415107,100.52906343,-28.3126220703125
1644887511646,219.90625,-2.359375,-87.609375,6.5625005,-39.65625,49.0125,-1.3375711,1.3197523,-0.11283189,-11.388618,1.6053122,-1.5921441,-0.032090146,-0.0870828,0.04327509,13.73415107,100.52906343,-28.3126220703125
1644887511750,219.71875,-2.578125,-87.34375,6.5062504,-39.318752,49.0125,-1.640379,0.64076465,0.47924253,-11.824963,1.6196774,-1.673547,0.045671865,0.08655018,-0.089879036,13.73415107,100.52906343,-28.3126220703125
1644887511853,219.9375,-177.65625,-87.65625,6.5437503,-38.98125,48.300003,-0.5571909,-1.2146676,0.15276381,-10.397419,0.14425065,-0.3226187,0.09254212,0.015179571,-0.0067908606,13.73415107,100.52906343,-28.3126220703125
1644887511954,219.78125,-2.453125,-87.546875,7.55625,-38.98125,48.412502,-1.2135344,-0.19442523,-0.0832693,-10.761338,0.30226797,-0.84934306,-0.021437814,-0.029560216,0.05712312,13.73415107,100.52906343,-28.3126220703125
1644887512055,220.03125,-2.28125,-87.703125,6.2625003,-38.268753,48.937504,-1.8525953,0.8960985,-0.9463826,-11.288062,0.7715315,-0.17896658,-0.085351795,-0.0039946237,0.0059919357,13.73415107,100.52906343,-28.3126220703125
1644887512159,219.9375,-2.3125,-87.65625,6.8625,-39.768753,48.825,-1.0998507,-1.0611631,-0.9379716,-9.276335,-0.23942018,0.688333,-0.025698747,0.011983871,0.023035664,13.73415107,100.52906343,-28.3126220703125
1644887512264,219.625,-2.515625,-87.46875,6.05625,-39.393753,49.706253,0.75629616,-2.2031858,1.0145745,-8.983644,-2.706645,1.3018472,-0.053394806,-0.007190323,0.069905914,13.7340854,100.52904064,-26.822113037109375
1644887512370,219.57812,-2.515625,-87.484375,5.7375,-39.35625,48.656254,0.91351223,1.1407387,-0.5867252,-9.343372,3.0424318,-0.9648633,0.061650362,0.0258319,-0.062182978,13.7340854,100.52904064,-26.822113037109375
1644887512472,219.75,-2.3125,-87.6875,6.0375004,-38.268753,48.91875,1.4184732,-0.29895663,-0.4691645,-8.528745,-1.0247183,-0.22685061,-0.11091739,-0.013581721,0.0027962367,13.7340854,100.52904064,-26.822113037109375
1644887512574,219.64062,-177.6875,-87.6875,6.3750005,-38.850002,48.35625,1.5132494,-1.0552862,-0.23463792,-10.938509,-0.5602432,-1.1659763,0.06591129,0.10572438,-0.07177007,13.7340854,100.52904064,-26.822113037109375
1644887512680,219.65625,-177.60938,-87.59375,7.9875,-39.28125,48.975002,0.105181694,-0.33149397,-0.14069322,-10.109517,-0.13826515,-1.0941502,-0.021437814,-0.033821147,0.015579033,13.7340854,100.52904064,-26.822113037109375
1644887512782,219.70312,-177.75,-87.75,7.74375,-39.825,48.91875,-0.7889204,0.16760263,1.314667,-10.962451,1.0115502,0.8463503,0.056324195,-0.0061250897,-0.062182978,13.7340854,100.52904064,-26.822113037109375
1644887512890,219.75,-177.8125,-87.796875,7.5000005,-39.43125,48.73125,-0.63174915,0.32056275,0.56816405,-10.421362,1.5478514,-1.1180922,0.0627156,-0.07856093,0.004926703,13.7340854,100.52904064,-26.822113037109375
1644887512990,219.64062,-2.234375,-87.765625,7.70625,-38.79375,47.90625,0.6367264,0.5454955,-0.9329282,-10.286688,1.0785879,1.4407109,-0.060851436,0.10998531,-0.011051793,13.7340854,100.52904064,-26.822113037109375
1644887513096,219.70312,-2.15625,-87.84375,6.675,-39.693752,48.73125,0.6174793,0.27060926,1.632177,-8.705916,0.9876082,0.3196259,0.036084767,-0.060451973,0.011318101,13.7340854,100.52904064,-26.822113037109375
1644887513197,219.6875,-2.140625,-87.84375,7.0312505,-39.018753,48.300003,0.07954693,-0.25046545,-1.2483484,-10.579379,0.6039374,-1.8219875,0.004127778,0.07696309,-0.025965055,13.73402146,100.52902857,-26.054046630859375
1644887513297,219.67188,-2.15625,-87.828125,6.8250003,-40.03125,48.3375,-0.79743767,-0.017558634,-1.1851727,-11.2210245,0.048482586,0.6835446,-0.050199106,0.04074516,-0.033421688,13.73402146,100.52902857,-26.054046630859375
1644887513399,219.57812,-2.1875,-87.796875,6.58125,-39.1875,48.468754,-0.54854107,-1.7164432,-0.039703257,-8.734647,0.0724246,1.0761937,0.081889786,-0.080691405,-0.012117025,13.73402146,100.52902857,-26.054046630859375
1644887513502,219.26562,-2.40625,-87.515625,6.3562503,-37.912502,47.86875,0.34707355,0.18230104,-0.63029516,-10.598533,0.83856916,-0.57161564,0.005193011,0.09187635,-0.023834588,13.73402146,100.52902857,-26.054046630859375
1644887513603,218.45312,-3.21875,-86.671875,7.14375,-38.68125,48.693752,-0.22085953,-0.6429146,0.03247896,-9.922769,0.0676362,0.60214174,0.023301972,-0.0018641578,-0.013182258,13.73402146,100.52902857,-26.054046630859375
1644887513707,218.42188,-3.234375,-86.65625,6.3,-38.550003,48.375004,0.35111427,-1.0902216,1.2497962,-9.621099,0.28790274,1.3066356,0.08721595,0.03967993,-0.05259588,13.73402146,100.52902857,-26.054046630859375
1644887513810,218.375,-3.28125,-86.59375,7.425,-38.11875,48.3375,1.3169918,-0.97870183,0.0216064,-8.892664,-0.46926352,0.4441244,0.013714875,0.10252868,-0.03768262,13.73402146,100.52902857,-26.054046630859375
1644887513917,218.46875,-3.140625,-86.4375,7.3875003,-38.98125,48.300003,0.009584427,-0.62758917,1.2363957,-8.974067,0.6278794,0.92775315,0.050998032,-0.050864875,0.012383334,13.73402146,100.52902857,-26.054046630859375
1644887514019,218.42188,-3.078125,-86.421875,7.9125004,-38.643753,48.037502,-1.780263,1.286725,-1.2065692,-10.402207,2.285864,1.2437878,-0.0789604,0.015179571,0.011318101,13.73402146,100.52902857,-26.054046630859375
1644887514121,218.48438,-3.03125,-86.5,8.587501,-38.737503,48.675003,0.013678551,0.44344214,0.77626497,-10.387842,0.2112883,-0.2124854,-0.02676398,-0.040212546,-0.0025299285,13.73402146,100.52902857,-26.054046630859375
1644887514222,218.59375,-2.859375,-86.5625,7.9687505,-38.325,48.862503,-0.46128273,-0.0020779073,-0.7923757,-9.510966,0.22565351,0.49679685,-0.06830807,-0.028494984,0.034753226,13.73396663,100.52901753,-25.555023193359375
1644887514328,218.64062,-2.859375,-86.0625,8.212501,-38.5875,49.406254,0.22785282,-0.9481631,0.07989466,-9.5253315,0.05327099,0.81761986,0.030758604,0.019440502,-0.011051793,13.73396663,100.52901753,-25.555023193359375
1644887514430,218.48438,-2.953125,-86.0625,7.74375,-39.225002,48.768753,1.015523,0.4124017,-1.1367236,-9.443929,-0.48841715,-0.66259533,-0.092808425,0.049267028,-0.007856093,13.73396663,100.52901753,-25.555023193359375
1644887514529,218.48438,-2.953125,-86.125,6.76875,-38.643753,49.050003,-0.07376003,-0.2730947,2.1248457,-11.480197,-1.3844471,0.4297592,-0.010785485,0.0290276,0.0177095,13.73396663,100.52901753,-25.555023193359375
1644887514645,218.35938,-3.046875,-86.078125,6.9375005,-37.725002,48.693752,0.6599617,0.51501834,-0.39130914,-10.238804,0.7092823,-1.0845734,0.031823836,2.6630826E-4,-0.028095521,13.73396663,100.52901753,-25.555023193359375
1644887514737,218.3125,-3.078125,-86.0,7.4625,-38.643753,50.156254,-0.49884987,0.4595947,-0.42765838,-10.378265,0.55605334,-0.08798691,-0.03741631,0.0045272405,0.008122402,13.73396663,100.52901753,-25.555023193359375
1644887514842,218.64062,-2.65625,-86.21875,7.2562504,-39.09375,49.275,-0.589694,1.2300514,-0.84664655,-10.0903635,0.7715315,-0.6338649,-0.09387366,-0.018907886,0.03901416,13.73396663,100.52901753,-25.555023193359375
1644887514945,219.48438,-1.796875,-87.46875,6.9375005,-38.625,49.125004,-0.6617813,-0.005525291,0.13233171,-9.903615,0.14903906,0.7457938,-0.019307349,-0.035951614,0.051796954,13.73396663,100.52901753,-25.555023193359375
1644887515046,219.0,-2.34375,-86.890625,6.1687503,-38.568752,48.80625,0.042111397,0.93578124,-0.8680053,-10.152613,1.3802572,-0.3609259,-0.04061201,0.015179571,-0.0014646954,13.73396663,100.52901753,-25.555023193359375
1644887515154,219.04688,-2.234375,-87.453125,5.9625,-38.737503,48.9,0.562397,-0.30743095,0.919643,-9.036316,0.15382746,0.6548142,0.028628137,-0.035951614,-0.00998656,13.73396663,100.52901753,-25.555023193359375
1644887515259,219.625,-1.6875,-88.28125,5.625,-38.006252,48.206253,0.26451588,0.40985554,0.47426897,-9.803059,0.95349085,-0.5955577,0.021171506,-0.011451255,0.024100898,13.73391435,100.52900767,-24.168701171875
1644887515360,219.54688,-1.765625,-88.21875,5.90625,-38.737503,49.0125,-0.028593063,-0.36298215,-0.910977,-9.5253315,0.09636662,0.060453594,-0.027829213,0.008788172,0.0145138,13.73391435,100.52900767,-24.168701171875
1644887515460,218.5625,-177.21875,-87.171875,6.3,-37.85625,48.7125,-1.0666571,0.4016145,0.048301145,-10.565014,1.2653356,-0.0688333,0.039280467,-0.013581721,0.0059919357,13.73391435,100.52900767,-24.168701171875
1644887515558,219.5625,-178.25,-88.1875,6.43125,-38.0625,48.412502,-0.40299988,0.4802613,-0.6626066,-10.080787,1.6053122,-0.2172738,0.031823836,0.011983871,-0.011051793,13.73391435,100.52900767,-24.168701171875
1644887515671,219.5,-178.1875,-87.9375,6.7312503,-38.34375,48.43125,0.50900936,-0.5767974,0.5966362,-9.635465,5.985504E-4,-0.45669398,0.08402026,-0.0039946237,-0.0046603945,13.73391435,100.52900767,-24.168701171875
1644887515768,219.0625,-177.75,-87.59375,6.6375003,-38.2125,48.693752,-0.20595932,0.636877,-1.0391232,-9.606734,1.0259154,-0.3465607,-0.047003407,-0.02742975,0.012383334,13.73391435,100.52900767,-24.168701171875
1644887515881,218.625,-177.32812,-87.15625,6.5437503,-38.175003,48.037502,-0.38715267,0.3802458,-1.2295043,-10.430939,0.6278794,-0.57640404,-0.031024912,0.034353767,0.029427063,13.73391435,100.52900767,-24.168701171875
1644887515978,219.45312,-178.14062,-87.71875,5.775,-37.631252,47.34375,0.34999275,-0.18402222,-0.2584659,-9.386468,0.038905777,-0.8158242,-0.021437814,-0.033821147,0.0177095,13.73391435,100.52900767,-24.168701171875
1644887516078,219.10938,-177.78125,-87.59375,6.80625,-38.831253,48.112503,-0.21402931,0.06352931,-0.06364241,-10.397419,0.5177461,0.089184016,-0.015046417,0.0023967742,0.0038614697,13.73391435,100.52900767,-24.168701171875
1644887516181,218.4375,-177.15625,-86.734375,7.51875,-38.2125,48.318752,-0.65718746,0.9534928,-0.89590645,-10.00896,1.1456255,-1.151611,-0.05872097,-0.047669176,0.037948925,13.73386494,100.52899616,-23.62811279296875
1644887516281,218.1875,-176.89062,-86.734375,6.9375005,-38.15625,48.075,-0.8954239,-0.10011044,0.45292723,-11.11568,0.3597288,0.36272156,-0.004394086,-0.026364516,0.024100898,13.73386494,100.52899616,-23.62811279296875
1644887516383,218.26562,-176.96875,-86.859375,6.8812504,-39.05625,48.225002,0.34733295,0.6380817,-1.007982,-9.242816,0.83856916,-1.1755531,-0.052329574,-0.025299285,0.020905199,13.73386494,100.52899616,-23.62811279296875
1644887516486,218.375,-177.0625,-86.890625,6.7500005,-38.175003,48.43125,-1.1034155,-0.38584107,0.48199984,-9.697714,-0.21547815,0.9900024,-0.0118507175,-0.09986559,0.062449288,13.73386494,100.52899616,-23.62811279296875
1644887516588,218.40625,-177.125,-87.0625,6.9,-38.7,48.43125,0.037563324,0.065235555,-0.83756536,-8.99322,0.75237787,-0.16460137,-0.009720251,-0.057256274,0.015579033,13.73386494,100.52899616,-23.62811279296875
1644887516689,219.04688,-177.71875,-87.484375,5.45625,-38.5125,48.318752,0.44454098,-0.046966076,-0.48497128,-9.386468,0.13467385,-0.4854244,-0.032090146,-0.0039946237,0.0145138,13.73386494,100.52899616,-23.62811279296875
1644887516797,218.96875,-177.70312,-87.484375,7.425,-38.2125,49.0125,0.20691872,0.18019497,-0.07316759,-9.79827,0.42676646,-0.9355343,-0.010785485,-0.017842652,-0.0067908606,13.73386494,100.52899616,-23.62811279296875
1644887516899,218.82812,-177.54688,-87.15625,7.0687504,-38.4375,49.256252,-0.04190731,0.27812302,-0.73542196,-10.914567,0.9828198,0.80325466,-0.038481545,0.031158065,-0.0067908606,13.73386494,100.52899616,-23.62811279296875
1644887517004,217.98438,-176.6875,-86.5625,5.9437504,-37.6875,48.7125,-0.21425056,0.5873493,0.9050957,-10.675147,0.5943606,-0.2220622,-0.022503048,-0.025299285,0.0038614697,13.73386494,100.52899616,-23.62811279296875
1644887517113,218.46875,-177.1875,-87.03125,6.9375005,-38.60625,48.99375,-0.25845146,0.31209195,0.5776548,-10.200497,0.54647654,0.7074866,-0.04806864,-0.0061250897,0.015579033,13.73386494,100.52899616,-23.62811279296875
1644887517212,219.26562,-178.04688,-87.875,6.24375,-38.0625,48.61875,-0.20539665,-0.20500568,0.8296352,-10.359112,0.17298107,-0.1933318,0.024367206,-0.0029293909,-0.0025299285,13.73381868,100.52898657,-22.987091064453125
1644887517313,219.29688,-1.859375,-88.140625,5.3625,-38.5125,48.768753,0.38852692,-0.51664007,0.8252532,-9.668983,0.06284779,0.58298814,-0.0022636203,-0.007190323,-0.0067908606,13.73381868,100.52898657,-22.987091064453125
1644887517415,218.875,-2.15625,-87.84375,6.0750003,-38.71875,48.61875,0.80871296,-0.49661383,-0.75404006,-9.305065,0.26396075,0.15622166,-0.02676398,0.09187635,-0.02063889,13.73381868,100.52898657,-22.987091064453125
1644887517518,219.32812,-1.59375,-88.234375,5.8875003,-38.5125,48.468754,-0.16052818,-0.28332227,0.38121462,-8.969278,0.9684546,1.4407109,0.020106273,-0.018907886,-3.9946238E-4,13.73381868,100.52898657,-22.987091064453125
1644887517619,219.29688,-1.53125,-88.015625,6.9750004,-38.9625,48.45,0.7451372,0.17459944,-0.004166931,-9.5971575,0.5177461,-0.09756372,-0.031024912,0.02157097,-0.0035951615,13.73381868,100.52898657,-22.987091064453125
1644887517725,218.54688,-2.171875,-87.296875,6.0750003,-39.45,48.525,0.10382366,-0.08122486,0.642503,-9.333796,0.3453636,0.39145198,-0.010785485,-0.057256274,0.019839965,13.73381868,100.52898657,-22.987091064453125
1644887517827,217.71875,-2.9375,-86.71875,5.9625,-38.90625,49.050003,0.51027393,0.17462823,0.37528986,-10.281899,0.26396075,-0.23642741,-0.0011983871,0.03648423,-0.028095521,13.73381868,100.52898657,-22.987091064453125
1644887517929,218.45312,-2.0625,-87.546875,5.8500004,-39.768753,48.937504,-0.04537964,0.2651316,0.20370387,-9.941922,0.3788824,-0.56682724,-0.017176883,-0.045538712,0.011318101,13.73381868,100.52898657,-22.987091064453125
1644887518035,218.17188,-2.28125,-87.296875,5.7375,-38.4375,48.093754,-0.42443943,-0.7406172,0.763894,-10.334572,-0.29209262,0.50637364,0.023301972,-0.010386022,0.008122402,13.73381868,100.52898657,-22.987091064453125
1644887518140,217.5625,-2.78125,-87.0625,5.2125,-39.16875,47.90625,-0.10743523,0.42121732,-0.66296136,-9.41041,1.1791444,-0.3417723,-0.018242115,-0.028494984,-0.0025299285,13.73381868,100.52898657,-22.987091064453125
1644887518245,218.25,-1.984375,-87.6875,5.7562504,-39.24375,48.206253,-0.37720108,-0.20131594,0.4772719,-9.702502,0.9343372,1.7567455,0.026497671,0.0066577066,0.011318101,13.73376918,100.52898833,-23.1051025390625
1644887518345,218.45312,-1.6875,-88.046875,6.4875,-39.075,48.61875,0.17767048,0.38187486,-0.19200766,-9.846154,0.6757634,-0.23163901,-0.043807708,-0.012516488,-0.0057256273,13.73376918,100.52898833,-23.1051025390625
1644887518449,217.79688,-2.21875,-87.640625,6.3375,-39.28125,48.675003,-0.023785591,-0.034572005,0.629248,-10.406996,-0.018555064,0.5398925,-0.0118507175,0.04287563,0.010252868,13.73376918,100.52898833,-23.1051025390625
1644887518554,217.82812,-2.125,-87.84375,6.4687505,-39.35625,48.2625,0.36506176,-0.10099995,0.48392785,-9.654618,0.0053869537,0.5446809,-0.031024912,0.0055924733,-0.0067908606,13.73376918,100.52898833,-23.1051025390625
1644887518661,217.23438,-2.609375,-86.703125,6.0750003,-39.05625,48.375004,0.34617043,0.7662228,-0.06487,-9.093777,0.9343372,-0.107140526,-0.033155378,-0.0774957,0.033687994,13.73376918,100.52898833,-23.1051025390625
1644887518753,217.51562,-2.25,-86.578125,6.0937505,-38.86875,48.750004,-0.44133568,1.0744994,-0.1154359,-9.827001,0.55126494,0.18076223,-0.0949389,-0.042343013,0.029427063,13.73376918,100.52898833,-23.1051025390625
1644887518861,216.9375,-2.734375,-85.328125,6.76875,-40.425003,47.643753,-0.7877779,0.26891437,0.62166876,-9.515755,0.3788824,1.9482816,-0.053394806,-0.05832151,0.019839965,13.73376918,100.52898833,-23.1051025390625
1644887518962,217.84375,-1.65625,-85.84375,7.3500004,-40.0875,47.925003,0.3084345,0.18762603,0.020396084,-8.969278,0.670975,0.6356605,-0.018242115,-0.042343013,0.0038614697,13.73376918,100.52898833,-23.1051025390625
1644887519065,217.79688,-1.625,-85.796875,6.2812505,-39.787502,47.568752,-0.10786247,0.17788011,0.095490575,-9.750386,0.4842273,0.8463503,-0.032090146,0.0055924733,0.020905199,13.73376918,100.52898833,-23.1051025390625
1644887519169,217.82812,-1.53125,-85.875,6.61875,-40.10625,47.943752,-0.42593193,0.37808856,1.2322642,-10.200497,0.7858967,1.38325,9.320789E-4,-0.03062545,0.030492295,13.73376918,100.52898833,-23.1051025390625
1644887519275,217.875,-1.421875,-85.921875,5.9812503,-40.275,48.7125,0.18042374,-0.007539183,-0.23056877,-10.0664215,0.16819267,-0.16938977,-0.01291595,0.045006096,-0.00998656,13.73374261,100.52898088,-23.908111572265625
1644887519381,217.75,-1.4375,-85.671875,7.05,-40.987503,48.825,-0.8183718,0.33998734,0.56315804,-9.941922,1.1121067,1.2970588,0.02223674,-0.035951614,0.004926703,13.73374261,100.52898088,-23.908111572265625
1644887519484,216.21875,-3.015625,-84.484375,5.9437504,-40.893753,48.61875,0.52584076,-0.3973995,-0.19916332,-9.908403,-0.02813187,0.39145198,0.0030625449,0.06737599,-0.023834588,13.73374261,100.52898088,-23.908111572265625
1644887519584,216.21875,-2.953125,-84.625,6.675,-40.631252,48.43125,0.07387066,-0.43753162,0.6707731,-10.248381,0.02932897,1.4885949,0.00838871,0.024766669,-0.007856093,13.73374261,100.52898088,-23.908111572265625
1644887519685,216.28125,-2.859375,-84.4375,7.0312505,-40.93125,48.206253,0.19634342,0.3014559,0.10868162,-10.09994,0.7811083,0.6500258,-0.0033288533,-0.0039946237,-0.021704122,13.73374261,100.52898088,-23.908111572265625
1644887519788,216.39062,-2.609375,-85.03125,6.5437503,-41.006252,48.693752,0.05738449,-0.17441896,-0.0040584803,-9.951499,0.28790274,1.1480197,-0.0033288533,0.06737599,-0.012117025,13.73374261,100.52898088,-23.908111572265625
1644887519893,217.23438,-1.671875,-84.921875,6.525,-41.025,48.693752,-0.48104763,0.013997644,0.10540217,-10.761338,0.56084174,1.1240777,0.0115844095,0.04607133,0.0038614697,13.73374261,100.52898088,-23.908111572265625
1644887519995,216.25,-2.671875,-84.734375,5.08125,-40.3125,48.937504,-1.493659,0.43621844,0.030324757,-10.19092,0.9343372,0.89902276,-0.019307349,-0.095604666,0.028361829,13.73374261,100.52898088,-23.908111572265625
1644887520103,216.59375,-2.203125,-84.515625,5.6625004,-40.48125,48.187504,0.29972076,0.5222472,-0.18162596,-8.576629,0.5943606,1.3257892,-0.054460037,-0.029560216,0.018774733,13.73374261,100.52898088,-23.908111572265625
1644887520205,216.40625,-2.34375,-84.921875,5.9812503,-41.006252,49.0125,0.6100626,-0.3656671,-0.33095634,-9.592369,-0.047285482,0.61171854,-0.0075897854,0.049267028,-0.0046603945,13.73371299,100.52897329,-22.993499755859375
1644887520304,215.625,-3.140625,-84.65625,6.2250004,-41.0625,48.6375,0.074061394,-0.19925323,-0.70822144,-10.19092,0.3357868,0.30526072,0.007323477,0.095072046,-0.019573657,13.73371299,100.52897329,-22.993499755859375
1644887520409,216.125,-2.515625,-85.15625,6.3,-41.175003,48.6375,-0.42536354,0.20560265,-0.29915935,-9.731233,0.53689975,0.15143326,-0.015046417,-0.033821147,-0.0014646954,13.73371299,100.52897329,-22.993499755859375
1644887520517,216.26562,-2.34375,-85.5625,6.05625,-40.537502,48.2625,1.1727057,-0.6804242,-0.70082116,-9.11293,-0.33997664,0.12270284,0.0115844095,0.08228925,-0.017443191,13.73371299,100.52897329,-22.993499755859375
1644887520617,216.0,-2.53125,-85.8125,6.9187503,-41.100002,48.693752,1.1346083,-0.73356867,-0.9068571,-8.758589,-0.842759,0.4249708,-0.025698747,0.07802832,-0.00998656,13.73371299,100.52897329,-22.993499755859375
1644887520718,215.29688,-3.265625,-85.421875,5.8875003,-41.4,48.525,-0.019486427,-0.4470777,0.48262435,-11.513716,0.8242039,0.5398925,0.07762886,0.059919357,-0.04833495,13.73371299,100.52897329,-22.993499755859375
1644887520824,216.0,-2.4375,-86.390625,6.3187504,-41.175003,48.693752,-1.4236832,1.012466,-1.1447223,-9.783905,2.094328,-0.27473465,-0.0011983871,-0.11584409,0.016644266,13.73371299,100.52897329,-22.993499755859375
1644887520929,216.875,-1.53125,-86.515625,6.5062504,-41.175003,48.6375,-0.22528076,0.79399925,-1.6448076,-8.749012,1.1073183,0.05566519,-0.08748226,-0.0902785,0.028361829,13.73371299,100.52897329,-22.993499755859375
1644887521034,215.23438,-3.140625,-86.015625,6.6562505,-40.143753,48.15,1.2295189,-0.85199004,-0.0684824,-9.242816,-0.5793968,1.775899,-0.0011983871,0.09294158,-0.036617383,13.73371299,100.52897329,-22.993499755859375
1644887521135,215.03125,-3.359375,-85.765625,6.61875,-41.49375,48.562504,-0.23575401,-0.9491305,0.27170116,-10.569802,0.30705637,0.7649474,0.07975932,0.04074516,-0.039813083,13.73371299,100.52897329,-22.993499755859375
1644887521239,215.84375,-2.453125,-86.578125,6.7500005,-40.6875,48.45,-0.761343,0.78663206,-0.93002844,-10.133459,0.943914,-0.9498995,-0.02037258,-0.0774957,0.026231363,13.73369598,100.52896782,-22.763885498046875
1644887521342,214.90625,-3.34375,-86.515625,6.6937504,-41.41875,49.218754,-0.21780968,0.81315166,-2.0195227,-8.4234,1.0498575,-0.7823054,-0.09067796,-0.08175664,0.06884068,13.73369598,100.52896782,-22.763885498046875
1644887521447,216.14062,-2.125,-87.484375,7.18125,-41.0625,48.225002,1.3488312,-0.8890834,-0.15620741,-9.247604,-0.7469909,0.6452374,0.021171506,0.09081112,-0.022769356,13.73369598,100.52896782,-22.763885498046875
1644887521549,216.76562,-178.57812,-88.5625,6.4875,-40.987503,48.99375,-0.045942307,-0.8880758,0.006336212,-10.406996,0.25917232,0.31004912,0.09254212,0.049267028,-0.044074018,13.73369598,100.52896782,-22.763885498046875
1644887521652,215.15625,-177.0625,-86.796875,6.6000004,-40.6875,49.068752,-0.90063095,0.49239096,-0.43609875,-10.809222,1.3515269,-0.84455466,0.009453943,-0.05193011,-3.9946238E-4,13.73369598,100.52896782,-22.763885498046875
1644887521755,215.04688,-176.92188,-86.859375,6.7312503,-41.86875,48.80625,-0.5017519,1.105407,-1.351219,-9.141661,0.7763199,-0.6099229,-0.09387366,-0.0774957,0.051796954,13.73369598,100.52896782,-22.763885498046875
1644887521856,215.34375,-177.29688,-87.0,7.55625,-40.10625,48.525,0.36394787,0.16904104,-1.1298089,-8.701127,-0.2825158,0.23343466,-0.08961273,-0.010386022,0.030492295,13.73369598,100.52896782,-22.763885498046875
1644887521961,215.28125,-177.26562,-86.984375,6.9375005,-40.3875,49.0125,1.0757904,-1.3103484,0.3865453,-9.903615,-0.21068975,0.712275,0.080824554,0.09187635,-0.050465416,13.73369598,100.52896782,-22.763885498046875
1644887522059,215.35938,-177.32812,-87.1875,7.4812503,-41.11875,49.55625,-0.22085857,-0.67934465,0.45301977,-10.881048,0.41718966,0.58298814,0.08615072,0.04607133,-0.04833495,13.73369598,100.52896782,-22.763885498046875
1644887522163,215.17188,-177.25,-87.234375,6.4500003,-41.04375,48.73125,-1.1644411,0.69785297,-0.091489136,-10.651205,1.8064252,-0.42317516,0.030758604,-0.0711043,-3.9946238E-4,13.73369598,100.52896782,-22.763885498046875
1644887522278,215.20312,-177.26562,-87.265625,5.9812503,-39.768753,48.225002,0.868906,-0.61769503,0.023616076,-9.5013895,-0.5506664,0.49200845,-0.004394086,0.066310756,-0.0057256273,13.73369598,100.52896782,-22.763885498046875
1644887522380,215.78125,-2.15625,-87.828125,6.8437505,-40.48125,48.54375,0.103152275,-0.88624257,-0.083678335,-10.032902,0.27832595,0.7314286,0.07230269,0.06311506,-0.03555215,13.73369598,100.52896782,-22.763885498046875
1644887522484,213.98438,-3.875,-86.125,7.0312505,-40.59375,49.800003,-0.66421604,0.51773727,-0.44566852,-10.272323,1.1408371,-0.47105917,0.007323477,-0.046603944,0.010252868,13.73369598,100.52896782,-22.763885498046875
1644887522581,214.23438,-3.703125,-86.265625,7.2000003,-40.162502,49.987503,-0.33822632,0.46084777,-0.88879275,-9.578004,0.76195467,-0.46148238,-0.02676398,-0.05193011,0.02516613,13.73369598,100.52896782,-22.763885498046875
1644887522686,215.42188,-2.53125,-87.453125,6.39375,-40.237503,49.500004,0.7700834,-0.5209739,-1.0718265,-8.476072,0.09636662,0.415394,-0.01291595,0.05778889,0.011318101,13.73369598,100.52896782,-22.763885498046875
1644887522785,215.07812,-177.125,-87.0625,6.5062504,-40.350002,49.36875,0.44289875,-0.8569111,-0.06292297,-9.745598,-0.090381116,0.6548142,0.024367206,0.072702155,-0.00998656,13.73369598,100.52896782,-22.763885498046875
1644887522892,215.04688,-177.0,-86.921875,6.675,-40.912502,49.74375,-0.9482527,0.5456966,-0.2656095,-10.87626,1.3611037,-0.6817489,0.050998032,-0.042343013,-0.014247492,13.73369598,100.52896782,-22.763885498046875
1644887522999,215.35938,-177.25,-87.140625,6.20625,-39.80625,49.162502,-0.3079548,0.7152145,-1.0340326,-9.386468,0.39324763,-0.9068039,-0.0693733,-0.049799643,0.04327509,13.73369598,100.52896782,-22.763885498046875
1644887523098,215.04688,-176.9375,-86.703125,6.1687503,-40.818752,49.93125,0.5335417,-0.037953347,-0.4618029,-9.017162,-0.19153613,0.439336,-0.03422061,0.022636201,0.027296597,13.73369598,100.52896782,-22.763885498046875
1644887523211,214.95312,-176.73438,-86.640625,6.4500003,-40.537502,49.818752,-0.45802975,0.26989308,-0.054686278,-10.378265,0.83378077,-0.3609259,0.024367206,-0.012516488,-0.0067908606,13.73368625,100.52897389,-23.7138671875
1644887523310,215.8125,-177.54688,-87.484375,6.5437503,-40.612503,49.631252,-0.63708687,0.333681,-0.5798576,-9.621099,0.66618663,-0.049679685,-0.028894445,-0.045538712,0.016644266,13.73368625,100.52897389,-23.7138671875
1644887523411,215.4375,-177.15625,-87.15625,6.5437503,-40.893753,50.30625,0.30987835,0.18838888,-0.2541271,-8.878299,0.25438392,0.14664486,-0.032090146,-0.021038352,0.024100898,13.73368625,100.52897389,-23.7138671875
1644887523512,215.42188,-2.9375,-87.03125,6.3375,-40.21875,49.781254,0.7744894,-0.4692507,-0.5591812,-9.491813,-0.08559271,-0.011372458,0.016910573,0.05778889,-0.018508423,13.73368625,100.52897389,-23.7138671875
1644887523617,215.53125,-2.890625,-87.046875,6.4125004,-40.74375,49.912502,0.24618244,-0.40523362,0.13476911,-10.234015,0.6853402,0.20470424,0.046737097,0.027962366,-0.015312725,13.73368625,100.52897389,-23.7138671875
1644887523726,215.76562,-2.65625,-87.328125,6.80625,-40.66875,50.531254,0.31157207,0.1444673,-0.40291226,-9.601946,0.077213004,-0.6434417,-0.018242115,0.0066577066,0.009187635,13.73368625,100.52897389,-23.7138671875
1644887523831,215.5625,-177.0625,-87.0625,7.425,-39.9375,50.79375,0.04817009,-0.3149532,-0.23304565,-9.980229,0.350152,-0.011372458,0.016377958,0.03808208,-0.011451255,13.73368625,100.52897389,-23.7138671875
1644887523928,215.82812,-177.3125,-87.296875,7.2187505,-40.706253,51.225002,-0.21060371,0.29884112,0.15062968,-9.965864,0.88645315,-0.01616086,0.002130466,-0.03555215,-3.9946238E-4,13.73368625,100.52897389,-23.7138671875
1644887524036,215.60938,-177.10938,-87.03125,6.6375003,-39.7125,49.65,0.22860813,-0.098056436,-0.24537018,-9.338584,0.110731825,-0.3369839,-0.022769356,0.02063889,0.010519176,13.73368625,100.52897389,-23.7138671875
1644887524138,215.53125,-177.03125,-86.953125,7.33125,-39.956253,49.93125,0.25549316,-0.40858543,0.19395468,-9.88925,0.5847838,0.36272156,0.038614698,0.039413624,-0.01904104,13.73368625,100.52897389,-23.7138671875
1644887524240,215.60938,-177.10938,-87.03125,6.24375,-39.862503,49.612503,-0.46806717,0.43638924,0.29304078,-10.497976,0.7763199,-0.57640404,0.009320789,-0.032356452,0.0013315412,13.73368625,100.52897389,-23.7138671875
1644887524342,215.71875,-177.21875,-87.078125,6.4875,-40.912502,50.23125,-0.4317217,0.3733294,-0.32782608,-9.702502,0.670975,-0.65301853,-0.027562905,-0.050731722,0.012250179,13.73368625,100.52897389,-23.7138671875
1644887524447,215.75,-177.26562,-87.0625,6.61875,-40.6875,50.081253,0.6370888,-0.3687057,0.1787057,-9.999383,0.091578215,0.0077811554,0.013448567,0.05366111,-0.017576344,13.73368625,100.52897389,-23.7138671875
1644887524555,215.34375,-176.875,-86.6875,7.0312505,-39.9375,49.912502,-0.82950115,0.42004552,0.31548077,-10.291476,1.0833763,-0.10235212,0.003195699,-0.0644466,0.016377958,13.73368625,100.52897389,-23.7138671875
1644887524658,215.71875,-177.23438,-87.078125,6.4875,-41.025,50.268753,0.4688139,0.5120925,-0.5721613,-9.036316,0.39803603,-0.84934306,-0.06870753,-0.037549466,0.030092834,13.73368625,100.52897389,-23.7138671875
1644887524761,215.84375,-177.375,-87.1875,6.9,-40.59375,50.04375,1.2215176,-0.12896505,-0.10585055,-8.763377,-0.39264908,-0.01616086,-0.037283156,0.059786204,0.01291595,13.73368625,100.52897389,-23.7138671875
1644887524863,215.5,-177.0625,-86.890625,7.3500004,-40.143753,50.006252,0.92518616,-0.9448185,0.17038943,-9.951499,-0.04249708,0.7745243,0.046337638,0.084686026,-0.040478855,13.73368625,100.52897389,-23.7138671875
1644887524974,215.51562,-177.0625,-86.953125,5.7562504,-39.956253,50.11875,-1.0213909,0.6039929,-0.2444728,-10.234015,1.2078748,-1.2521675,0.002130466,-0.08322133,0.014646954,13.73368625,100.52897389,-23.7138671875
1644887525066,216.0625,-177.60938,-87.453125,6.24375,-39.9375,50.831253,-0.74418926,0.9452078,-0.20895217,-9.721656,1.1552023,-1.0654198,-0.044606633,-0.11531147,0.031690683,13.73368625,100.52897389,-23.7138671875
1644887525177,215.35938,-176.95312,-86.734375,5.86875,-40.237503,50.025,1.4675789,-0.6159482,-0.31176126,-8.375516,-0.5650316,-0.0017956513,-0.03994624,0.04940018,0.008521864,13.73368625,100.52897389,-23.7138671875
1644887525277,215.59375,-177.14062,-86.578125,7.0312505,-39.825,49.706253,2.0401402,-1.2712934,-0.041001543,-8.777742,-0.7565677,0.5781997,0.03581846,0.12503172,-0.045671865,13.73368625,100.52897389,-23.7138671875
1644887525378,215.73438,-177.28125,-86.015625,6.80625,-40.425003,49.987503,1.8864608,-1.5776653,0.7496018,-8.930971,-0.93852705,0.7074866,0.063514516,0.12716219,-0.055392116,13.73368625,100.52897389,-23.7138671875
1644887525483,215.17188,-176.79688,-85.765625,6.9187503,-40.10625,50.7,-0.6236124,-0.42818773,0.0477532,-11.11568,1.4185646,-0.030526072,0.1274285,0.06537867,-0.07776201,13.73368625,100.52897389,-23.7138671875
1644887525582,215.73438,-177.26562,-86.421875,6.2250004,-40.40625,50.156254,-1.0386581,0.60864806,0.012200311,-11.072584,1.5526398,-0.55725044,0.09014534,0.008921326,-0.043674555,13.73368625,100.52897389,-23.7138671875
1644887525687,215.1875,-176.85938,-85.546875,6.6000004,-40.48125,49.7625,-0.63286304,0.973789,-0.90991294,-9.434352,1.0546459,-0.8110358,-0.07283531,-0.064579755,0.037283156,13.73368625,100.52897389,-23.7138671875
1644887525802,216.21875,-177.71875,-86.765625,6.5625005,-40.237503,50.943752,0.18235874,-0.5562088,0.21790989,-10.085575,0.2112883,0.09876082,0.05286219,0.03874785,-0.02130466,13.73368625,100.52897389,-23.7138671875
1644887525910,215.15625,-176.8125,-85.71875,6.4125004,-40.29375,50.456253,-0.5987873,0.587643,0.16026947,-10.51713,0.9780314,-0.64823014,0.02197043,-0.037948925,-0.003195699,13.73368625,100.52897389,-23.7138671875
