timestamp,orientation.x,orientation.y,orientation.z,ak0991x_magnetometer.x,ak0991x_magnetometer.y,ak0991x_magnetometer.z,linear_acceleration.x,linear_acceleration.y,linear_acceleration.z,icm4x6xx_accelerometer.x,icm4x6xx_accelerometer.y,icm4x6xx_accelerometer.z,icm4x6xx_gyroscope.x,icm4x6xx_gyroscope.y,icm4x6xx_gyroscope.z,GPS.lat,GPS.long,GPS.alt
1644645215842,188.375,-176.65625,-86.140625,9.65625,-72.76875,20.081251,-0.33940983,-0.10107297,0.48219314,-9.831789,0.87687635,-0.092775315,0.060718283,-0.018508423,-0.0035951615,13.85995313,100.51658751,-28.618133544921875
1644645215949,188.375,-176.65625,-86.140625,10.1625,-72.65625,22.125,0.11387062,0.2285791,0.38010627,-10.411784,0.20649989,-0.86370826,-0.01065233,0.04647079,0.024100898,13.85995313,100.51658751,-28.618133544921875
1644645216047,188.375,-176.65625,-86.140625,10.275001,-74.3625,21.73125,-0.10648537,-0.6971337,-0.83347356,-9.117719,0.25917232,0.63087213,-0.004260932,0.050731722,0.030492295,13.85995313,100.51658751,-28.618133544921875
1644645216151,188.375,-176.65625,-86.140625,9.6,-74.55,21.806252,0.7358599,0.21459576,0.5473387,-9.788693,-0.521936,-0.9792285,-0.036217924,0.009187635,0.026231363,13.85995313,100.51658751,-28.618133544921875
1644645216253,188.51562,-176.73438,-86.203125,10.200001,-75.80625,22.3125,-0.064146996,0.06700984,0.9486229,-8.839992,0.4985925,0.23822308,0.0,-0.09094427,0.013448567,13.85995313,100.51658751,-28.618133544921875
1644645216363,188.53125,-176.70312,-86.09375,9.618751,-75.24375,21.35625,-0.15547943,-0.60850865,1.0615432,-9.850943,0.05805939,-0.6386533,0.06497922,-0.04194355,-0.03768262,13.85995313,100.51658751,-28.618133544921875
1644645216463,188.5,-176.67188,-86.046875,9.39375,-76.70625,22.10625,0.2785101,-0.5268835,-0.4675092,-9.515755,-0.047285482,-0.66738373,0.006391398,-0.014247492,-0.03129122,13.85995313,100.51658751,-28.618133544921875
1644645216563,188.21875,-176.67188,-86.078125,10.21875,-76.856255,21.862501,-0.06623936,-0.4529171,-0.94921225,-9.093777,-0.33997664,-0.25558102,0.005326165,0.024100898,0.03155753,13.85995313,100.51658751,-28.618133544921875
1644645216672,188.98438,-177.39062,-86.75,8.90625,-76.125,20.79375,-0.19675922,-0.16787711,0.010984987,-9.276335,0.27353755,0.0796072,-0.003195699,0.0017310036,0.058188353,13.85995313,100.51658751,-28.618133544921875
1644645216775,189.85938,-178.21875,-87.546875,9.431251,-76.537506,20.38125,0.14699173,0.6665664,0.052578688,-10.095152,0.7715315,-1.352724,-0.017043728,-0.023834588,0.02197043,13.85995313,100.51658751,-28.618133544921875
1644645216878,191.07812,-179.34375,-87.25,9.6,-75.4875,18.28125,1.5155058,0.41339388,-1.3513209,-8.835203,0.29269117,-2.3636756,-0.08628388,-0.0067908606,-0.043008782,13.85989958,100.51693608,-21.0218505859375
1644645216977,190.09375,-178.42188,-86.046875,9.637501,-75.24375,16.2,-0.9532614,0.3238178,-1.1174332,-9.578004,0.4842273,-1.0989386,-0.037283156,-0.007856093,0.050731722,13.85989958,100.51693608,-21.0218505859375
1644645217081,189.48438,-177.82812,-85.8125,9.9375,-75.4875,16.650002,-0.5788412,-0.192081,0.72962564,-11.110891,-0.8523358,-0.65301853,-0.0969362,-0.057922047,0.050731722,13.85989958,100.51693608,-21.0218505859375
1644645217186,189.14062,-177.5,-85.234375,10.106251,-75.46875,16.1625,-0.18285084,-0.113483146,0.1293619,-9.11293,-0.25378537,-0.31304187,-0.08415341,-0.14846686,0.036883693,13.85989064,100.51694029,-19.871673583984375
1644645217289,189.5625,-177.9375,-84.390625,10.481251,-77.11875,16.275002,-0.16375923,0.73162866,0.40987575,-10.238804,0.077213004,-2.1146786,-0.1033276,-0.103727065,0.07523208,13.85989064,100.51694029,-19.871673583984375
1644645217396,189.65625,-178.04688,-84.46875,9.900001,-77.137505,15.76875,-0.4286127,0.1602568,0.7435237,-10.052056,-0.49320555,-0.55246204,-0.098001435,-0.03555215,0.05925359,13.85989064,100.51694029,-19.871673583984375
1644645217500,189.92188,-178.35938,-84.609375,9.806251,-76.350006,15.000001,-0.113363266,0.03586778,1.2956268,-9.721656,-0.2681506,-0.74399817,0.004260932,-0.062182978,0.034753226,13.85989064,100.51694029,-19.871673583984375
1644645217601,190.42188,-178.90625,-84.96875,10.950001,-76.856255,15.000001,-1.211134,-0.98672175,-0.16040915,-9.692925,-0.12868834,-0.7918822,0.005326165,-0.1335536,0.004926703,13.85989064,100.51694029,-19.871673583984375
1644645217706,190.34375,-178.875,-84.890625,9.918751,-77.662506,15.093751,-0.15142441,0.61867356,-0.16868961,-9.0315275,-0.004189853,-1.520318,-0.11504517,-0.07070484,0.051796954,13.85989064,100.51694029,-19.871673583984375
1644645217809,189.64062,-178.375,-85.5625,9.76875,-78.05625,15.243751,-0.7136755,1.0201547,-1.4254379,-9.793482,0.20171149,-0.53330845,-0.14061075,-0.02063889,0.064579755,13.85989064,100.51694029,-19.871673583984375
1644645217914,189.46875,-178.32812,-85.34375,10.875,-78.225006,15.01875,-0.046466827,0.7753439,0.9965318,-9.654618,0.39803603,-0.480636,-0.08415341,-0.14633639,0.06031882,13.85989064,100.51694029,-19.871673583984375
1644645218011,188.96875,-177.95312,-85.65625,9.28125,-77.793755,14.606251,-1.1059742,1.1892115,1.4303403,-11.892,1.4089876,-0.6242881,0.0,-0.09413997,-3.9946238E-4,13.85989064,100.51694029,-19.871673583984375
1644645218116,189.57812,-178.67188,-86.0,8.887501,-78.3375,14.775001,-0.19335079,0.8195946,-0.3907271,-10.497976,0.64703304,-0.15981296,-0.098001435,0.015579033,-0.028095521,13.85989064,100.51694029,-19.871673583984375
1644645218224,189.23438,-178.34375,-85.625,10.44375,-77.53125,15.562501,-1.1996441,1.8123778,-0.9406654,-7.896077,1.5765818,-0.777517,-0.092675276,-0.14846686,0.079493016,13.85987273,100.51696352,-19.693634033203125
1644645218326,188.73438,-177.92188,-85.921875,10.275001,-78.80625,15.281251,-1.4767485,0.43995768,-0.620417,-9.314642,-0.2873042,0.21906945,-0.14380646,-0.05579158,0.12636326,13.85987273,100.51696352,-19.693634033203125
1644645218426,188.85938,-178.03125,-86.03125,9.543751,-79.200005,15.01875,-1.2427397,0.5027399,0.16839379,-10.224439,-0.6847417,-0.5859809,-0.111849464,-0.0856181,0.09014534,13.85987273,100.51696352,-19.693634033203125
1644645218529,188.84375,-178.10938,-86.640625,9.69375,-78.225006,15.937501,-0.9783573,0.9279121,0.73088014,-9.827001,0.66139823,-0.092775315,-0.036217924,-0.074965775,0.063514516,13.85987273,100.51696352,-19.693634033203125
1644645218633,189.01562,-178.29688,-86.640625,9.4125,-79.256256,16.3125,-0.41775608,0.27987513,-0.264713,-8.638878,-0.7230489,0.5255273,-0.16404589,-0.0952052,0.05392742,13.85987273,100.51696352,-19.693634033203125
1644645218736,189.03125,-178.25,-86.546875,8.71875,-78.80625,15.618751,-0.5648756,-0.80951095,1.4161134,-9.956287,-1.7196354,0.7026982,-0.098001435,-0.082422405,0.02197043,13.85987273,100.51696352,-19.693634033203125
1644645218845,188.85938,-178.15625,-86.46875,8.587501,-77.850006,15.750001,1.1806831,-0.70286727,2.1051774,-8.0445175,-0.8331822,-0.6769605,0.0074566314,-0.11224893,-0.007856093,13.85987273,100.51696352,-19.693634033203125
1644645218950,188.98438,-178.23438,-86.453125,7.8375,-77.231255,16.181252,0.73850536,-0.04200542,0.27189225,-9.309854,-0.6368576,-1.3144168,-0.03195699,0.034753226,0.030492295,13.85987273,100.51696352,-19.693634033203125
1644645219045,188.9375,-178.32812,-87.5,7.6687503,-77.381256,15.712501,-0.4248314,0.40580797,-0.7806853,-9.807847,-0.02813187,0.40102878,-0.08095771,-0.021704122,0.007057169,13.85987273,100.51696352,-19.693634033203125
1644645219152,189.67188,-178.96875,-88.078125,8.15625,-77.475006,14.925,0.26169395,-0.21729375,1.325984,-10.286688,-0.45968673,-0.01616086,-0.04580502,-0.0025299285,0.015579033,13.85986217,100.51701352,-20.71734619140625
1644645219256,189.10938,-178.46875,-87.1875,8.043751,-76.9875,15.39375,-0.10751438,-0.8882593,1.0088603,-10.406996,-0.5506664,-0.74399817,0.07350108,-0.018508423,-0.0046603945,13.85986217,100.51701352,-20.71734619140625
1644645219359,189.40625,-178.79688,-88.0,7.5375004,-76.8375,14.83125,0.16615105,0.42402083,-0.3265732,-9.563639,1.2509704,-0.006584055,0.002130466,-0.012117025,-0.057922047,13.85986217,100.51701352,-20.71734619140625
1644645219467,189.57812,-178.96875,-87.4375,7.1062503,-76.78125,14.250001,0.6372709,0.7080325,0.020135015,-10.344149,0.30226797,-1.5155296,-0.03515269,0.011318101,-0.027030287,13.85986217,100.51701352,-20.71734619140625
1644645219567,190.32812,-179.71875,-88.265625,6.8250003,-75.9375,14.83125,0.049057007,-0.6206719,-0.5552535,-9.285912,0.46986207,-0.25558102,0.030891757,0.012383334,-0.036617383,13.85986217,100.51701352,-20.71734619140625
1644645219669,187.73438,-177.25,-86.296875,6.6937504,-76.2375,14.868751,-0.27114773,0.06598544,-0.17477572,-9.793482,0.623091,0.23343466,0.0074566314,0.008122402,0.0177095,13.85986217,100.51701352,-20.71734619140625
1644645219776,188.07812,-177.5625,-86.5,5.68125,-75.80625,13.387501,-0.48940372,0.31988695,1.1113625,-10.238804,0.5895722,-0.57640404,0.014913263,-0.1207708,0.024100898,13.85986217,100.51701352,-20.71734619140625
1644645219877,188.29688,-177.76562,-86.703125,5.49375,-76.33125,14.137501,0.15547848,0.8592172,-0.5843662,-9.1512375,0.7667431,-1.4293385,-0.038348388,-0.0046603945,0.020905199,13.85986217,100.51701352,-20.71734619140625
1644645219982,188.84375,-178.20312,-86.46875,6.3750005,-75.24375,13.33125,0.097260475,-0.35621622,0.60580266,-10.181343,-0.49320555,0.78410107,-0.020239428,-0.0014646954,-0.039813083,13.85986217,100.51701352,-20.71734619140625
1644645220078,189.17188,-178.4375,-87.078125,7.18125,-75.075005,14.19375,-0.58773804,0.56774294,1.3023387,-10.128671,0.3357868,0.6548142,0.0074566314,-0.0067908606,0.018774733,13.85986217,100.51701352,-20.71734619140625
1644645220186,187.5,-176.76562,-86.34375,6.525,-75.95625,13.462501,-0.5337992,-0.19446717,2.189913,-9.874885,-0.62249243,-0.9115923,0.061783515,-0.09307474,0.062449288,13.85985724,100.5170655,-20.8778076171875
1644645220287,187.32812,-176.54688,-86.203125,7.33125,-75.95625,13.218751,-0.1269188,0.70253325,-1.3335817,-10.291476,0.27832595,-2.938284,-0.054326884,-0.04940018,0.032622762,13.85985724,100.5170655,-20.8778076171875
1644645220392,188.4375,-177.53125,-87.390625,7.5000005,-75.4875,12.262501,-0.11388683,0.9093523,0.2070837,-10.627263,-0.09995792,-1.1133038,-0.060718283,0.0017310036,0.04647079,13.85985724,100.5170655,-20.8778076171875
1644645220496,189.14062,-178.125,-87.328125,7.14375,-74.2125,10.837501,0.15563774,-0.4073202,0.04681465,-9.563639,-0.4309563,-0.41359833,-0.044739787,-0.022769356,0.026231363,13.85985724,100.5170655,-20.8778076171875
1644645220597,189.15625,-178.09375,-87.28125,7.74375,-74.137505,10.012501,-0.122927666,-0.8591871,0.7316672,-9.534908,-0.35913026,-1.7357962,0.03515269,-0.082422405,-0.0067908606,13.85985724,100.5170655,-20.8778076171875
1644645220701,189.35938,-178.1875,-86.8125,7.51875,-72.375,10.012501,-0.4228487,0.5281929,0.4779489,-9.67856,-0.008978256,-0.6434417,-0.026630826,-0.07390054,0.058188353,13.85985724,100.5170655,-20.8778076171875
1644645220803,189.34375,-178.17188,-86.703125,6.61875,-71.08125,10.275001,-0.45203972,0.07236907,-1.4857302,-9.098565,0.46507367,-0.092775315,-0.028761292,-0.057922047,0.037948925,13.85985724,100.5170655,-20.8778076171875
1644645220904,189.8125,-178.53125,-85.515625,7.0125003,-70.21875,10.6875,-0.8136091,0.5389256,-0.89937925,-9.242816,1.0737995,-0.20290859,-0.044739787,-0.08135717,0.04647079,13.85985724,100.5170655,-20.8778076171875
1644645221007,190.09375,-178.76562,-86.140625,7.1062503,-69.24375,11.85,-1.5238857,1.2009572,-0.8466469,-9.252393,1.7345991,-0.39923313,-0.009587097,-0.033421688,0.05712312,13.85985724,100.5170655,-20.8778076171875
1644645221107,190.34375,-178.95312,-85.71875,7.9500003,-71.100006,12.431251,-0.73714066,0.27511594,-1.1760981,-9.922769,1.0450691,0.5351041,0.001065233,-0.00998656,-0.044074018,13.85985724,100.5170655,-20.8778076171875
1644645221215,189.5,-178.14062,-85.96875,7.2375,-71.64375,12.656251,-0.5177765,-0.16366205,0.68968,-10.176555,0.3357868,1.2868834,-0.014913263,-0.03768262,-0.023834588,13.85985257,100.51712017,-21.859130859375
1644645221330,189.5625,-178.14062,-85.96875,8.3625,-71.756256,12.88125,0.6021013,0.37252596,0.32290727,-8.590994,-0.50757074,-0.57161564,-0.07776201,-0.04620448,0.054992653,13.85985257,100.51712017,-21.859130859375
1644645221428,189.625,-178.20312,-86.0,8.306251,-70.725006,12.900001,-0.3389902,0.33638886,0.0658122,-10.31063,0.66618663,-1.2186487,0.018108962,-0.022769356,0.012383334,13.85985257,100.51712017,-21.859130859375
1644645221527,190.0625,-178.60938,-86.140625,8.3625,-71.11875,12.450001,-0.22173595,0.5220009,-0.29604632,-9.755175,1.1121067,-1.0510546,0.0,-0.030225987,0.007057169,13.85985257,100.51712017,-21.859130859375
1644645221630,189.73438,-178.26562,-86.28125,8.64375,-72.4875,13.837501,-0.6351547,0.4690311,-0.5914352,-10.63684,1.0163386,-0.6817489,0.009587097,0.044340324,-0.013182258,13.85985257,100.51712017,-21.859130859375
1644645221730,190.5,-178.95312,-87.0625,8.962501,-71.11875,13.781251,-0.83161163,-0.33376545,0.6378151,-11.240178,-0.21068975,0.17597382,-0.023435127,-0.007856093,-3.9946238E-4,13.85985257,100.51712017,-21.859130859375
1644645221833,188.70312,-177.20312,-86.015625,9.09375,-71.71875,13.200001,-0.08650112,-0.5969108,-0.2508918,-8.523956,0.1921347,0.82240826,-0.001065233,-0.06537867,-0.011051793,13.85985257,100.51712017,-21.859130859375
1644645221933,189.60938,-178.09375,-86.96875,9.243751,-71.55,12.58125,-0.5502558,-0.08373636,-2.4391084,-7.9343843,1.7489643,0.45370123,0.019174194,0.050731722,0.019839965,13.85985257,100.51712017,-21.859130859375
1644645222035,189.79688,-178.25,-87.53125,9.731251,-70.387505,13.668751,0.1319294,0.23874229,-0.17283815,-9.419987,0.24001873,0.060453594,-0.036217924,0.032622762,0.02197043,13.85985257,100.51712017,-21.859130859375
1644645222147,189.875,-178.28125,-86.796875,10.63125,-70.93125,13.106251,-0.3135414,0.30427417,-0.13884771,-10.497976,0.6087258,-2.3540988,0.002130466,-0.096270435,0.013448567,13.85984567,100.51717331,-22.28192138671875
1644645222239,189.40625,-177.8125,-86.046875,11.700001,-71.193756,13.950001,-0.7974796,0.33284897,-0.055429995,-10.4405155,0.83856916,-1.922544,0.015978495,-0.05579158,0.033687994,13.85984567,100.51717331,-22.28192138671875
1644645222343,189.21875,-177.65625,-86.03125,12.337501,-70.9875,13.650001,0.5533695,0.5391029,-1.1642838,-8.926183,0.6422446,-1.2138603,-0.030891757,0.044340324,-0.0046603945,13.85984567,100.51717331,-22.28192138671875
1644645222445,189.5625,-177.96875,-84.84375,11.775001,-71.287506,14.812501,0.050221443,-0.47457168,-0.87865216,-9.965864,-0.62249243,-0.9355343,-0.06817491,0.04966649,0.027296597,13.85984567,100.51717331,-22.28192138671875
1644645222546,189.89062,-178.20312,-84.84375,11.606251,-70.59375,14.26875,-0.18136501,0.33667123,1.1268537,-10.147824,-0.9624691,-0.26036942,-0.111849464,-0.04833495,0.054992653,13.85984567,100.51717331,-22.28192138671875
1644645222647,189.14062,-177.5,-85.640625,11.625,-70.2375,15.168751,-0.23462391,0.34170237,1.4219177,-10.4883995,-0.40222588,-0.30346507,0.015978495,-0.050465416,0.02197043,13.85984567,100.51717331,-22.28192138671875
1644645222749,190.29688,-178.625,-85.09375,12.056251,-70.36875,16.331251,-1.3989162,0.20476621,-0.14018041,-10.598533,0.53211135,0.5303157,-0.08628388,-0.09413997,0.029427063,13.85984567,100.51717331,-22.28192138671875
1644645222853,191.09375,-179.34375,-86.859375,11.53125,-71.15625,16.85625,-0.9755745,0.3075877,0.833367,-10.234015,0.599149,-0.86849666,-0.022369893,-0.09307474,0.034753226,13.85984567,100.51717331,-22.28192138671875
1644645222969,190.3125,-178.64062,-86.3125,10.950001,-70.443756,16.96875,0.8241625,0.64118147,0.5486082,-9.074623,0.10115502,-0.84455466,-0.07776201,-0.043008782,0.03901416,13.85984567,100.51717331,-22.28192138671875
1644645223071,190.84375,-179.15625,-85.28125,10.368751,-71.775,17.362501,-0.050854683,-0.4880577,0.48149234,-9.534908,0.84335756,-0.078410104,0.056457352,-0.08455287,-0.04194355,13.85984567,100.51717331,-22.28192138671875
1644645223179,190.5,-178.82812,-85.90625,10.35,-71.700005,16.368752,0.6882391,0.4050469,-3.2236896,-8.198345,1.1168951,-1.7932571,-0.11504517,-0.0067908606,0.0145138,13.85983909,100.5172262,-21.79241943359375
1644645223274,190.04688,-178.40625,-86.125,10.650001,-71.793755,16.743752,-0.40164375,1.0658989,-1.5439153,-9.745598,0.7858967,-0.7679402,-0.111849464,0.02516613,0.07629731,13.85983909,100.5172262,-21.79241943359375
1644645223378,189.51562,-177.89062,-85.890625,9.637501,-72.262505,15.69375,-0.3632059,-0.1882737,0.89458305,-10.526707,-0.24899697,1.4742297,-0.040478855,0.04540556,-0.0057256273,13.85983909,100.5172262,-21.79241943359375
1644645223480,189.84375,-178.21875,-86.296875,9.825001,-72.525,16.518751,-0.58652306,-0.7319412,1.4710019,-9.850943,0.56084174,-0.2124854,0.13634983,-0.051530648,-0.015312725,13.85983909,100.5172262,-21.79241943359375
1644645223581,188.8125,-177.3125,-85.109375,10.275001,-73.125,16.03125,-0.03138256,-0.009477675,-1.3966701,-9.372103,0.27832595,0.002992752,-0.06391398,0.0177095,6.657706E-4,13.85983909,100.5172262,-21.79241943359375
1644645223688,189.48438,-177.84375,-85.9375,9.0375,-72.4875,15.562501,-0.29156208,-0.23143205,0.98920846,-10.214862,0.06284779,-0.39923313,0.0074566314,-0.043008782,0.0059919357,13.85983909,100.5172262,-21.79241943359375
1644645223794,189.09375,-177.35938,-85.859375,9.543751,-73.350006,15.806251,-0.8363409,0.07351661,-1.1687754,-9.165603,0.7858967,-0.23163901,-0.013848029,-0.08348764,0.018774733,13.85983909,100.5172262,-21.79241943359375
1644645223897,189.875,-178.0625,-85.515625,10.668751,-73.05,14.400001,0.26161194,0.6220309,0.16110286,-9.831789,0.7667431,-0.47105917,-0.060718283,-0.0792267,-0.013182258,13.85983909,100.5172262,-21.79241943359375
1644645224006,189.01562,-177.20312,-85.125,11.34375,-72.01875,14.343751,2.0671015,0.8002269,-1.3836173,-8.116942,-0.37828386,-1.0127473,-0.12463226,0.054992653,0.03155753,13.85983909,100.5172262,-21.79241943359375
1644645224106,189.76562,-177.8125,-85.765625,12.375001,-73.425,14.812501,-0.7122278,-0.28724086,0.5031688,-11.3407345,-0.8619126,0.37229836,-0.13528459,0.15832026,0.033687994,13.85983909,100.5172262,-21.79241943359375
1644645224220,190.42188,-178.32812,-86.671875,12.656251,-72.76875,14.437501,0.9463701,-1.1350641,0.34779856,-8.294113,0.12030864,-1.8124107,0.1161104,-0.08455287,-0.012117025,13.85983348,100.51728355,-21.875274658203125
1644645224314,189.70312,-177.625,-86.15625,12.95625,-73.425,15.375001,0.4972849,0.37490955,0.06591952,-9.400833,0.3357868,-2.7036524,0.009587097,-0.06537867,6.657706E-4,13.85983348,100.51728355,-21.875274658203125
1644645224419,189.48438,-177.4375,-86.46875,12.937501,-74.700005,15.937501,0.29854202,0.31776723,0.43490106,-9.165603,0.7906851,-0.8924387,0.051131185,0.0027962367,0.03581846,13.85983348,100.51728355,-21.875274658203125
1644645224518,189.70312,-177.6875,-85.765625,12.731251,-73.8375,15.262501,0.7223511,0.4339252,-1.6813655,-8.279748,0.350152,-1.4676456,-0.121436566,-0.06431344,0.03581846,13.85983348,100.51728355,-21.875274658203125
1644645224623,189.875,-177.76562,-86.390625,13.668751,-75.43125,14.531251,-0.84888077,-0.8932766,-0.67126364,-9.1033535,0.08200141,1.9195513,0.047935486,-0.0014646954,-0.027030287,13.85983348,100.51728355,-21.875274658203125
1644645224734,189.73438,-177.64062,-86.59375,12.993751,-73.912506,14.625001,0.14012432,0.79132223,-0.24313772,-8.547898,0.46028528,-1.5777789,-0.08202294,-0.028095521,0.06777545,13.85983348,100.51728355,-21.875274658203125
1644645224834,190.07812,-177.96875,-86.453125,12.656251,-72.76875,13.312501,-0.40530205,-0.07131398,-0.11433846,-10.4883995,-0.08080431,0.7457938,-0.06284875,0.0177095,0.018774733,13.85983348,100.51728355,-21.875274658203125
1644645224934,190.07812,-177.92188,-86.75,12.58125,-73.51875,13.668751,-1.1829128,0.18539673,0.5066679,-10.469246,0.31663316,-0.8062474,0.002130466,-0.05579158,0.0177095,13.85983348,100.51728355,-21.875274658203125
1644645225033,190.10938,-177.95312,-86.71875,12.618751,-72.95625,14.08125,-0.58570576,0.77186346,0.26357138,-10.383054,0.53689975,-1.0175357,-0.026630826,-0.04513925,0.0059919357,13.85983348,100.51728355,-21.875274658203125
1644645225137,190.45312,-178.32812,-86.28125,12.712501,-72.58125,14.6625,-2.204173,0.03141612,0.8521848,-11.556811,0.32142156,0.6500258,-0.038348388,-0.14633639,0.024100898,13.85983313,100.51734642,-22.7293701171875
1644645225236,190.95312,-178.76562,-87.109375,12.0375,-72.675,14.212501,-0.2704277,-1.3551834,3.8584208,-9.625888,0.5847838,-3.0292637,0.2609821,-0.30186042,-0.09307474,13.85983313,100.51734642,-22.7293701171875
1644645225344,189.42188,-177.28125,-86.21875,11.85,-71.9625,16.03125,0.97158337,0.10623059,-3.2119646,-8.0924015,0.019752163,-2.9909565,-0.076696776,0.16045073,0.03155753,13.85983313,100.51734642,-22.7293701171875
1644645225446,190.0625,-177.90625,-86.078125,10.51875,-71.943756,16.275002,-0.6186571,0.31813824,-1.0891619,-10.387842,0.13467385,1.1432313,-0.13848029,0.11358047,0.04966649,13.85983313,100.51734642,-22.7293701171875
1644645225546,190.15625,-177.96875,-86.0625,9.825001,-71.4,16.03125,-0.75839996,0.26461604,0.23882431,-9.050681,-1.3700819,3.1603463,-0.07030538,-0.023834588,0.008122402,13.85983313,100.51734642,-22.7293701171875
1644645225650,189.96875,-177.9375,-85.953125,9.88125,-72.450005,16.987501,-1.5883818,-0.8115959,1.0134407,-9.932345,-0.2633622,1.3210008,-0.052196417,-0.26138157,-0.022769356,13.85983313,100.51734642,-22.7293701171875
1644645225758,191.34375,-179.1875,-87.890625,10.181251,-72.24375,16.837502,-0.32392693,1.1060886,-0.22903126,-10.411784,1.3036429,-0.31783026,0.014913263,-0.22196794,0.05392742,13.85983313,100.51734642,-22.7293701171875
1644645225865,191.1875,-179.15625,-87.796875,8.418751,-72.693756,17.04375,-0.05876732,0.89685947,-0.6571497,-9.386468,0.091578215,-2.1481974,-0.08095771,0.0059919357,0.100797676,13.85983313,100.51734642,-22.7293701171875
1644645225964,191.20312,-179.17188,-87.734375,7.74375,-72.99375,17.925001,-1.5658092,-0.09160259,-1.0482602,-8.99322,1.174356,2.801216,-0.033022225,-0.05898728,0.015579033,13.85983313,100.51734642,-22.7293701171875
1644645226063,191.25,-179.14062,-87.796875,7.8,-73.256256,15.281251,-1.927742,0.015450746,0.027799994,-10.871471,0.7906851,0.46327803,0.009587097,-0.051530648,0.010252868,13.85983313,100.51734642,-22.7293701171875
1644645226166,191.04688,-179.01562,-87.890625,7.7625003,-73.40625,15.4125,-0.47020817,0.2229091,-0.7166613,-9.807847,0.2112883,2.28347,-0.08095771,0.09440628,-0.0014646954,13.85982857,100.51740516,-23.515106201171875
1644645226267,191.125,-179.03125,-88.015625,8.26875,-74.86875,14.962501,-0.008760452,-0.32784176,2.7545445,-10.31063,-1.0869676,-0.7679402,-0.001065233,-0.06963961,0.05605789,13.85982857,100.51740516,-23.515106201171875
1644645226372,191.0625,-179.0,-88.109375,8.475,-75.637505,14.3625,-0.9869833,0.4466531,-0.010308772,-8.595782,2.1757307,-0.14065935,0.054326884,-0.061117746,0.058188353,13.85982857,100.51740516,-23.515106201171875
1644645226473,190.95312,-178.82812,-88.09375,7.2937503,-74.231255,14.062501,-0.07235432,2.1910377,-1.4497919,-8.667608,1.1504139,-0.3321955,-0.17576344,-0.017443191,0.06671022,13.85982857,100.51740516,-23.515106201171875
1644645226577,190.85938,-178.76562,-87.953125,7.9125004,-74.68125,13.125001,-1.1486645,-0.030382693,-0.3328352,-9.793482,-0.49799395,2.4181437,-0.08095771,0.008122402,0.027296597,13.85982857,100.51740516,-23.515106201171875
1644645226684,190.03125,-178.0,-87.125,8.25,-75.318756,12.6,-0.35605812,-1.6299099,1.2388778,-8.605359,-0.2873042,2.4899697,0.043674555,-0.14314069,-0.00998656,13.85982857,100.51740516,-23.515106201171875
1644645226797,189.6875,-177.54688,-87.53125,8.75625,-74.568756,13.481251,1.3578167,0.39907494,-0.45437798,-9.146449,0.18255788,-1.3862427,-0.06391398,0.04966649,0.026231363,13.85982857,100.51740516,-23.515106201171875
1644645226902,190.23438,-178.17188,-88.15625,9.431251,-74.55,12.243751,0.2980671,-0.68075764,-0.11955464,-9.750386,-0.6368576,-0.4854244,-0.0117175635,0.04540556,-0.0025299285,13.85982857,100.51740516,-23.515106201171875
1644645227002,190.34375,-178.29688,-87.9375,9.975,-72.787506,11.90625,0.110054016,-0.8065945,-0.15547329,-9.539697,-0.31603462,1.2006922,0.01065233,0.023035664,-0.057922047,13.85982857,100.51740516,-23.515106201171875
1644645227101,190.46875,-178.40625,-88.3125,10.78125,-73.36875,10.59375,-0.48448372,-1.5362184,1.1464477,-10.047267,-0.7326257,-1.5011644,0.08947957,-0.0952052,-0.029160755,13.85982857,100.51740516,-23.515106201171875
1644645227204,190.625,-178.625,-88.609375,12.13125,-72.525,9.9375,-1.0769482,-0.5956474,-0.41631693,-10.267534,0.52732295,0.0700304,0.049000718,0.030492295,-0.03768262,13.85982431,100.51745737,-24.28759765625
1644645227304,190.03125,-178.0625,-88.015625,12.4125,-72.8625,9.50625,0.21664143,0.1862056,0.0868485,-9.721656,0.8194155,-1.7405846,0.033022225,-0.06005251,6.657706E-4,13.85982431,100.51745737,-24.28759765625
1644645227408,190.0,-178.03125,-88.0,12.937501,-72.881256,8.868751,-0.41229534,1.2573369,-0.77535975,-10.080787,1.8495208,-1.6065093,0.005326165,0.026231363,0.0145138,13.85982431,100.51745737,-24.28759765625
1644645227514,190.34375,-178.46875,-88.34375,12.88125,-71.86875,7.5375004,-1.6776171,2.394362,-0.8106557,-11.992557,1.6244658,0.15622166,-0.141676,0.16790736,0.047536023,13.85982431,100.51745737,-24.28759765625
1644645227617,191.03125,-179.09375,-89.09375,13.218751,-72.037506,7.6125,-1.1062784,0.89646006,-0.65218717,-10.454881,-0.22026655,-0.85891986,-0.08628388,-0.04194355,0.062449288,13.85982431,100.51745737,-24.28759765625
1644645227721,190.92188,-0.859375,-88.703125,12.843751,-70.762505,6.9,-3.0038643,1.9725045,-0.27638933,-12.46182,-0.20590134,0.45370123,-0.32170036,-0.06857438,0.16151595,13.85982431,100.51745737,-24.28759765625
1644645227825,191.15625,-0.734375,-88.859375,13.125001,-70.74375,6.525,-1.0308037,0.13885522,-0.007614076,-9.041104,-1.3413515,-0.14065935,-0.2226337,-0.2049242,0.11677617,13.85982431,100.51745737,-24.28759765625
1644645227932,190.98438,-0.75,-88.84375,12.918751,-70.631256,6.4125004,2.482912,-1.1309704,0.3150642,-6.085462,-1.834557,0.60214174,-0.105458066,-0.09307474,0.02197043,13.85982431,100.51745737,-24.28759765625
1644645228032,191.28125,-0.609375,-89.0,12.750001,-68.83125,6.61875,-0.06322384,-1.3105783,2.9137263,-8.658031,-2.883816,3.2704794,-0.17576344,-0.022769356,0.14553747,13.85982431,100.51745737,-24.28759765625
1644645228135,190.89062,-0.796875,-88.8125,13.1625,-69.28125,6.20625,-2.3104258,-0.51151633,2.2792745,-10.794857,-2.7832594,2.873042,-0.17256775,-0.21344607,0.04540556,13.85981858,100.51751662,-24.602081298828125
1644645228236,190.89062,-0.828125,-88.796875,12.525001,-68.26875,7.1062503,-0.029694557,0.3564398,-0.06426886,-7.9152308,0.40282443,-2.32058,-0.002130466,-0.21983747,0.06777545,13.85981858,100.51751662,-24.602081298828125
1644645228343,190.82812,-0.78125,-88.796875,13.51875,-67.33125,8.1,-0.8426161,1.493405,-0.9044287,-8.777742,-0.16759412,-0.3657143,-0.1225018,-0.011051793,0.10399337,13.85981858,100.51751662,-24.602081298828125
1644645228441,190.95312,-0.734375,-88.796875,13.856251,-67.200005,8.043751,0.90216255,1.9139017,-1.3795444,-9.55885,0.943914,0.050876785,-0.22050324,0.0177095,0.03155753,13.85981858,100.51751662,-24.602081298828125
1644645228542,190.9375,-0.71875,-89.0,13.012501,-66.46875,8.71875,-1.7606821,2.1901886,-1.1608857,-10.214862,-0.23942018,1.6657659,-0.1906767,0.027296597,0.11890664,13.85981858,100.51751662,-24.602081298828125
1644645228647,190.85938,-0.75,-88.9375,13.875001,-67.21875,10.087501,-2.6497831,-1.3188325,3.5419226,-10.229227,-1.1300632,1.9387048,0.12995844,-0.2592511,0.06884068,13.85981858,100.51751662,-24.602081298828125
1644645228758,191.0,-0.609375,-89.0,14.19375,-66.95625,10.3125,0.013661385,1.2985094,-1.56529,-9.300277,1.4616601,-2.4690206,-0.040478855,-0.067509145,0.020905199,13.85981858,100.51751662,-24.602081298828125
1644645228862,191.01562,-0.546875,-89.046875,14.6625,-67.03125,10.25625,0.120877266,1.8063669,-0.9798909,-11.422138,1.246182,-1.1994951,-0.08095771,0.09440628,-0.008921326,13.85981858,100.51751662,-24.602081298828125
1644645228964,191.1875,-0.5,-88.734375,14.83125,-65.775,10.5,-0.21251583,-0.36679086,0.94094145,-10.679935,-0.34955344,1.1192893,-0.02130466,0.018774733,0.008122402,13.85981858,100.51751662,-24.602081298828125
1644645229064,191.23438,-0.4375,-88.6875,14.812501,-65.418755,10.950001,1.6436443,1.0654607,-1.5963732,-9.55885,0.41240123,0.6739678,-0.11504517,0.17003782,-0.028095521,13.85981858,100.51751662,-24.602081298828125
1644645229169,191.20312,-0.4375,-88.546875,14.2875,-64.950005,11.493751,0.74948215,-0.5584605,0.84493357,-9.252393,1.0450691,-0.801459,0.17256775,-0.032356452,-0.08348764,13.85980823,100.51756342,-24.47900390625
1644645229270,191.14062,-0.5,-88.4375,16.143751,-65.512505,11.56875,1.7310972,-0.786634,0.55969435,-9.587581,-0.2681506,-2.0087352,0.07776201,0.028361829,-0.050465416,13.85980823,100.51756342,-24.47900390625
1644645229375,190.3125,-1.265625,-88.734375,16.368752,-65.15625,12.562501,1.1428299,0.83279765,-1.310788,-10.166978,1.0833763,-2.1003134,0.04260932,0.1529941,-0.04087832,13.85980823,100.51756342,-24.47900390625
1644645229477,190.03125,-178.35938,-88.203125,16.10625,-64.93125,13.387501,0.6682825,0.12057385,-1.2972754,-8.648455,-0.02813187,-0.30825347,-0.022369893,0.034753226,0.040079392,13.85980823,100.51756342,-24.47900390625
1644645229580,189.95312,-178.35938,-87.796875,15.95625,-65.512505,15.618751,1.2130775,-0.7485441,-0.1712943,-8.796896,-0.37349546,-0.073621705,0.036217924,0.03155753,-0.03129122,13.85980823,100.51756342,-24.47900390625
1644645229689,190.34375,-178.67188,-87.171875,16.03125,-64.9875,15.731251,0.07426357,-0.84908795,-0.35632166,-8.7538,0.46028528,1.0905589,0.025565593,-0.023834588,-0.030225987,13.85980823,100.51756342,-24.47900390625
1644645229790,190.32812,-178.625,-87.15625,16.3875,-66.20625,16.5375,0.32623672,-0.37968853,-0.97483635,-9.482236,0.31663316,-1.1324574,0.024500359,0.06564499,-0.023834588,13.85980823,100.51756342,-24.47900390625
1644645229893,190.28125,-178.60938,-87.21875,16.3875,-67.481255,17.456251,-0.34673214,-1.269753,0.3996084,-10.061633,-0.8619126,-0.035314474,0.053261653,-0.018508423,-0.011051793,13.85980823,100.51756342,-24.47900390625
1644645230000,190.42188,-178.67188,-87.296875,16.368752,-66.9375,16.725,0.8404741,0.20601338,-0.8626261,-9.045893,0.39803603,-1.1611878,-0.017043728,0.0027962367,0.0059919357,13.85980823,100.51756342,-24.47900390625
1644645230101,190.48438,-178.71875,-87.375,16.087502,-68.981255,16.95,-0.09208202,-0.3480004,0.4786264,-9.582792,-0.008978256,0.4297592,0.037283156,0.010252868,0.0027962367,13.85980823,100.51756342,-24.47900390625
1644645230201,190.53125,-178.73438,-87.390625,15.993751,-69.46875,16.743752,0.52991486,-1.3405058,1.7068934,-10.727819,-0.78529817,-0.44232875,0.09480574,-0.04087832,-0.10905323,13.85980077,100.51762191,-25.07598876953125
1644645230301,190.34375,-178.5625,-87.078125,16.81875,-70.21875,17.0625,-0.89890003,-1.0161694,-0.14678395,-9.630676,-0.19632454,0.80804306,-0.050065953,-0.08029194,0.032622762,13.85980077,100.51762191,-25.07598876953125
1644645230407,189.45312,-177.75,-86.203125,17.306252,-69.05625,15.993751,0.89204216,0.20187373,-0.75257695,-9.38168,0.374094,-2.44029,-0.006391398,-0.0035951615,0.034753226,13.85980077,100.51762191,-25.07598876953125
1644645230514,189.65625,-177.875,-86.328125,16.78125,-69.09375,16.25625,-0.2417965,1.3345189,-1.4136738,-10.047267,0.5895722,-0.7823054,-0.12356703,0.063514516,0.050731722,13.85980077,100.51762191,-25.07598876953125
1644645230616,189.65625,-177.875,-86.34375,16.95,-69.1125,16.612501,0.94959354,-0.42456537,1.7951884,-9.5013895,-0.11911154,0.5446809,-0.004260932,-0.044074018,-0.011051793,13.85980077,100.51762191,-25.07598876953125
1644645230717,190.35938,-178.5,-86.953125,17.643751,-68.68125,16.275002,-0.064044,0.08139613,0.54930043,-9.606734,0.13946225,-1.3623008,0.017043728,-0.04833495,0.023035664,13.85980077,100.51762191,-25.07598876953125
1644645230818,190.0,-178.10938,-87.359375,18.46875,-69.1875,16.800001,-0.3026533,0.3339165,-0.27832967,-9.985018,0.66139823,-0.030526072,0.008521864,0.013448567,0.02197043,13.85980077,100.51762191,-25.07598876953125
1644645230919,189.20312,-177.39062,-86.9375,19.612501,-68.30625,17.175001,0.45250225,0.33577225,0.6256574,-11.609484,-0.33518824,-0.86849666,-0.043674555,0.054992653,-0.0025299285,13.85980077,100.51762191,-25.07598876953125
1644645231028,190.3125,-178.4375,-87.25,19.556252,-69.225006,16.800001,0.06548309,-3.3462048E-4,-0.594566,-9.324219,0.9828198,-1.5107412,0.036217924,-0.028095521,-0.032356452,13.85980077,100.51762191,-25.07598876953125
1644645231128,190.89062,-178.96875,-87.5,19.9125,-70.05,15.13125,0.03632641,0.18119669,-1.6192119,-10.4405155,-0.004189853,-1.0319009,-0.013848029,0.09014534,-0.013182258,13.85979235,100.51767884,-24.5716552734375
1644645231228,190.84375,-178.89062,-87.453125,19.893751,-69.80625,16.650002,0.19003963,-0.6935259,1.1269593,-10.224439,-0.60333884,0.79846627,-0.001065233,0.041144624,-0.019573657,13.85979235,100.51767884,-24.5716552734375
1644645231331,189.65625,-177.76562,-86.984375,20.643751,-70.3125,16.96875,-0.18010521,-1.872406,0.75820196,-9.352949,-0.91937345,0.91817635,0.106523305,-0.023834588,-0.05898728,13.85979235,100.51767884,-24.5716552734375
1644645231432,189.9375,-178.04688,-87.09375,20.550001,-71.925,16.96875,0.89466953,-0.54343754,-0.022583485,-7.943961,1.1168951,-0.480636,0.07350108,0.004926703,-0.0057256273,13.85979235,100.51767884,-24.5716552734375
1644645231534,191.0,-179.0625,-88.9375,20.625,-72.4875,17.98125,2.2534208,0.33468378,-0.16197002,-7.5225816,0.22565351,0.34835634,-0.017043728,0.09014534,-0.015312725,13.85979235,100.51767884,-24.5716552734375
1644645231637,191.92188,-0.015625,-89.53125,21.28125,-74.287506,18.075,1.0881176,-0.45244104,-0.5849211,-8.705916,-0.6464345,1.0809821,-0.08841434,0.12316757,0.03155753,13.85979235,100.51767884,-24.5716552734375
1644645231739,190.71875,-178.79688,-88.375,19.800001,-75.787506,17.85,1.5127316,-1.6316124,1.5778682,-8.72507,-1.4131776,-0.65301853,0.06710968,-0.025965055,-0.04087832,13.85979235,100.51767884,-24.5716552734375
1644645231843,191.15625,-179.25,-88.53125,20.2875,-77.568756,17.081251,1.2074022,-0.86620784,-1.0365492,-7.6375036,-0.061650693,-1.2904748,0.036217924,-0.014247492,-0.017443191,13.85979235,100.51767884,-24.5716552734375
1644645231946,191.14062,-179.21875,-89.0625,20.118752,-76.950005,16.2,1.2622337,-0.4072811,-0.52190137,-8.701127,-0.8475474,-1.8028339,-0.028761292,0.024100898,0.028361829,13.85979235,100.51767884,-24.5716552734375
1644645232049,191.01562,-179.1875,-89.0,18.75,-77.25,15.168751,0.46039963,-0.7578391,0.017421782,-9.041104,-0.89543146,0.44891283,-0.033022225,0.028361829,0.04540556,13.85979235,100.51767884,-24.5716552734375
1644645232155,191.4375,-179.54688,-88.609375,18.09375,-76.668755,14.981251,0.51368237,-0.9810276,0.09048796,-8.375516,0.17776948,0.5303157,0.06284875,-0.00998656,-0.033421688,13.85978382,100.51772501,-23.94976806640625
1644645232257,190.89062,-179.0,-87.78125,17.60625,-75.675,14.55,0.035816193,-0.20996726,-0.09460023,-8.653243,0.45549688,-0.16938977,0.018108962,-0.05685681,-0.014247492,13.85978382,100.51772501,-23.94976806640625
1644645232360,190.65625,-178.84375,-87.78125,16.78125,-75.131256,14.26875,1.1015024,0.09227565,0.35313544,-9.348161,-0.21068975,-1.0079589,0.020239428,0.036883693,-3.9946238E-4,13.85978382,100.51772501,-23.94976806640625
1644645232464,190.17188,-178.29688,-87.5625,16.237501,-75.825005,14.64375,-0.45195866,-1.0520792,-0.5091312,-9.156026,-0.56982,0.6356605,0.013848029,0.010252868,0.0017310036,13.85978382,100.51772501,-23.94976806640625
1644645232563,189.54688,-177.75,-86.765625,15.281251,-74.850006,14.83125,0.26133537,-0.042708695,0.7002248,-10.478823,-0.2777274,-1.8028339,0.0117175635,-0.028095521,0.0145138,13.85978382,100.51772501,-23.94976806640625
1644645232672,189.9375,-178.14062,-86.5,14.1,-75.450005,15.468751,-0.23526764,0.4777094,-0.6976292,-9.122507,0.86251116,-0.5859809,-0.038348388,-0.008921326,0.03155753,13.85978382,100.51772501,-23.94976806640625
1644645232774,191.4375,-179.51562,-85.78125,13.368751,-75.5625,16.087502,-0.08279228,-0.5252659,-0.55154705,-9.2907,0.2160767,0.33877954,0.026630826,0.004926703,-0.013182258,13.85978382,100.51772501,-23.94976806640625
1644645232876,191.5625,-179.64062,-85.46875,13.05,-74.231255,16.425001,0.6740942,-0.28589913,-0.20534766,-8.81605,0.43155485,-0.05925649,0.003195699,-0.0014646954,-0.039813083,13.85978382,100.51772501,-23.94976806640625
1644645232975,190.25,-178.45312,-84.4375,12.6,-74.4375,17.306252,0.12412453,-0.21067692,0.5188634,-10.09994,0.12988544,-0.8206126,0.030891757,-0.0046603945,-0.007856093,13.85978382,100.51772501,-23.94976806640625
1644645233079,189.01562,-177.3125,-84.265625,11.418751,-75.24375,17.34375,0.8990536,-0.31320536,0.10284951,-8.758589,0.31184477,-0.9888053,0.015978495,-0.0014646954,0.024100898,13.85978382,100.51772501,-23.94976806640625
1644645233193,189.40625,-177.64062,-85.078125,11.925,-75.95625,17.60625,0.24780369,-0.4142111,0.0029636323,-9.5253315,0.3405752,0.40581718,0.034087457,0.063514516,-0.021704122,13.8597758,100.51778503,-22.614532470703125
1644645233297,190.53125,-178.65625,-86.34375,10.78125,-77.418755,19.6875,-0.19861794,-0.61643827,0.34467667,-8.940548,0.41718966,0.37229836,0.07243585,0.004926703,0.0145138,13.8597758,100.51778503,-22.614532470703125
1644645233395,191.4375,-179.42188,-87.21875,10.106251,-77.53125,18.09375,0.01964283,-0.19872883,0.93259954,-10.5362835,-0.29209262,-1.5682021,-0.009587097,-0.030225987,0.0017310036,13.8597758,100.51778503,-22.614532470703125
1644645233506,190.07812,-178.07812,-86.921875,10.387501,-77.175,17.831251,1.2840967,-0.035950005,0.3385295,-9.43914,-0.7134721,1.5747862,-0.09161004,0.09440628,0.012383334,13.8597758,100.51778503,-22.614532470703125
1644645233605,189.46875,-177.51562,-86.28125,10.21875,-79.14375,20.1,-0.081355095,-0.32761413,2.0239778,-9.491813,-0.8283938,-0.41359833,0.0117175635,-0.096270435,0.04647079,13.8597758,100.51778503,-22.614532470703125
1644645233709,190.20312,-178.15625,-87.5625,9.056251,-78.84375,20.5125,0.0102415085,0.39193192,-1.8555453,-7.9248075,1.1935096,-1.3144168,0.012782796,-0.04620448,0.02516613,13.8597758,100.51778503,-22.614532470703125
1644645233809,190.78125,-178.65625,-88.640625,9.675,-79.40625,20.362501,0.36769962,0.3448344,0.11939314,-10.056845,-0.770933,-1.2808979,-0.11504517,-0.027030287,0.061384052,13.8597758,100.51778503,-22.614532470703125
1644645233914,189.53125,-177.42188,-87.40625,9.1875,-78.975006,19.725,1.7607412,0.4855005,0.124566585,-8.188768,-0.2681506,0.8702923,-0.104392834,0.041144624,0.03581846,13.8597758,100.51778503,-22.614532470703125
1644645234023,189.64062,-177.48438,-87.140625,7.89375,-78.543755,19.125,0.9337959,-0.6350509,0.8593832,-9.069835,0.14903906,0.09876082,0.058587816,-0.05366111,-0.08668334,13.8597758,100.51778503,-22.614532470703125
1644645234131,189.5625,-177.35938,-87.015625,8.231251,-78.1125,18.675001,1.3545952,0.5896372,-1.3604361,-8.595782,1.2557588,-1.3144168,0.025565593,0.040079392,-0.06324821,13.8597693,100.5178483,-21.817474365234375
1644645234232,189.73438,-177.51562,-86.875,8.56875,-78.787506,18.487501,4.469853,-7.7060738,0.25201282,-2.3145945,-7.4256167,7.8649526,-0.1225018,0.17216828,0.077362545,13.8597693,100.5178483,-21.817474365234375
1644645234334,189.26562,-176.95312,-86.734375,8.4375,-79.65,18.54375,0.44536877,-4.5515256,7.373839,-6.669647,-3.3913867,1.4454993,0.283352,-0.48721096,-0.06963961,13.8597693,100.5178483,-21.817474365234375
1644645234435,189.9375,-177.5625,-87.546875,8.53125,-79.293755,18.46875,0.0016126633,-0.8572464,0.0344629,-5.0745106,0.12988544,-2.0614076,0.051131185,-0.33275217,0.029427063,13.8597693,100.5178483,-21.817474365234375
1644645234538,189.98438,-177.53125,-87.515625,9.01875,-80.287506,17.362501,1.1342812,1.6576257,-1.0139506,-7.6135616,0.19692309,-3.5853171,-0.12782796,-0.14101022,0.13275467,13.8597693,100.5178483,-21.817474365234375
1644645234640,189.73438,-177.4375,-87.421875,8.64375,-80.775,18.243752,-0.97016907,2.1679611,0.14358447,-8.705916,-5.2600613,4.5687356,-0.64872694,-0.12183603,0.32875755,13.8597693,100.5178483,-21.817474365234375
1644645234745,190.0,-2.53125,-87.46875,8.606251,-80.418755,18.768751,-1.1993876,0.46718016,-0.014911264,-7.264008,-2.0165164,0.9947908,-0.19706811,-0.28694713,0.11571094,13.8597693,100.5178483,-21.817474365234375
1644645234854,190.23438,-177.625,-87.609375,8.793751,-80.08125,17.98125,0.24628639,-0.56597775,-0.2649038,-4.3077674,-0.6799533,0.6404489,-0.1161104,-0.3114475,0.12529804,13.8597693,100.5178483,-21.817474365234375
1644645234954,189.76562,-177.4375,-87.421875,8.306251,-80.043755,17.587502,0.6008978,0.037848026,-0.8185549,-7.2544312,-1.2306197,-1.352724,-0.18215485,-0.26990342,0.14234176,13.8597693,100.5178483,-21.817474365234375
1644645235057,190.25,-177.51562,-87.5,8.137501,-80.68125,17.1375,-1.0944557,0.67913836,-1.7283163,-8.322844,-0.5554548,-0.64823014,-0.19813335,-0.18788047,0.14127652,13.8597693,100.5178483,-21.817474365234375
1644645235159,190.35938,-177.60938,-87.5625,8.400001,-79.78125,16.81875,-1.6997452,0.10878396,0.49476093,-9.1512375,-0.33997664,1.7950528,-0.104392834,-0.15166256,0.10186291,13.85976132,100.51790356,-21.8260498046875
1644645235259,190.3125,-177.5625,-87.5625,7.7625003,-80.475006,16.237501,-1.609788,0.53221333,0.58857584,-9.88925,-0.11911154,-0.3561375,-0.076696776,-0.17509767,0.078427784,13.85976132,100.51790356,-21.8260498046875
1644645235364,190.53125,-177.59375,-87.578125,8.043751,-79.93125,17.41875,-0.770483,0.3698741,-1.3162928,-8.389881,0.55126494,-0.31304187,-0.12356703,-0.11011846,0.10505861,13.85976132,100.51790356,-21.8260498046875
1644645235465,190.34375,-177.48438,-87.484375,8.08125,-79.33125,17.1375,-0.8050318,0.9950928,-0.39063674,-10.383054,0.05327099,-1.8842367,-0.14593692,-0.1143794,0.08908011,13.85976132,100.51790356,-21.8260498046875
1644645235577,190.42188,-177.5,-87.5,8.4375,-79.4625,17.0625,-0.013975143,-0.1519522,-1.13821,-7.9248075,-0.013766659,0.20949265,-0.099066675,-0.08774857,0.05392742,13.85976132,100.51790356,-21.8260498046875
1644645235672,190.51562,-177.5625,-87.546875,8.56875,-78.975006,17.081251,-1.2215519,0.90580726,-0.93989414,-9.88925,0.9008184,-0.3321955,-0.106523305,-0.07816147,0.05712312,13.85976132,100.51790356,-21.8260498046875
1644645235776,190.34375,-177.46875,-87.453125,9.1125,-79.425,17.550001,-0.90112114,0.90959746,-1.0022271,-9.300277,0.89603,-0.43275195,-0.083088174,-0.051530648,0.062449288,13.85976132,100.51790356,-21.8260498046875
1644645235877,190.46875,-177.46875,-87.453125,8.00625,-79.293755,16.837502,-1.6024218,0.66142744,0.063866615,-11.364676,0.46986207,-0.11192893,-0.061783515,-0.015312725,0.069905914,13.85976132,100.51790356,-21.8260498046875
1644645235983,190.51562,-177.59375,-87.0625,7.8187504,-77.30625,17.362501,-1.6194181,0.5763517,-0.35026008,-10.248381,0.52732295,-0.5141548,-0.040478855,-0.082422405,0.02197043,13.85976132,100.51790356,-21.8260498046875
1644645236102,190.60938,-177.65625,-86.796875,7.9875,-78.01875,16.706251,1.4183245,-0.8916788,-0.124477446,-8.294113,-0.6560113,-0.47105917,0.001065233,0.037948925,-0.0046603945,13.85976132,100.51790356,-21.8260498046875
1644645236200,191.75,-178.70312,-86.890625,7.33125,-78.1875,16.725,-0.5320244,-0.76016045,-2.217108,-7.8865004,-0.6799533,-0.57161564,-0.09161004,-0.013182258,0.07629731,13.85975487,100.51795929,-22.524810791015625
1644645236299,191.75,-178.71875,-86.890625,8.137501,-77.26875,17.775002,-0.53332996,0.5093148,-1.3570136,-8.720282,-0.29688102,0.58777654,-0.13954553,-0.04194355,0.08481918,13.85975487,100.51795929,-22.524810791015625
1644645236402,191.89062,-178.82812,-86.71875,7.4812503,-78.412506,17.868752,-0.43094063,-0.010099977,0.65276486,-9.640253,-0.4357447,-1.103727,-0.050065953,-0.16444534,0.04966649,13.85975487,100.51795929,-22.524810791015625
1644645236505,191.07812,-178.07812,-85.765625,7.0875,-79.537506,17.8875,-0.50455475,0.4714183,-0.76383114,-9.141661,0.41240123,-0.9600749,-0.06391398,-0.16124965,0.07097115,13.85975487,100.51795929,-22.524810791015625
1644645236605,191.0,-178.0,-85.65625,7.5750003,-80.25,18.69375,0.57901096,1.1885238,-0.5592975,-9.036316,0.28790274,-1.3431472,-0.11504517,-0.12290126,0.03155753,13.85975487,100.51795929,-22.524810791015625
1644645236709,190.75,-177.76562,-84.84375,7.9687505,-81.375,17.831251,-1.2077713,-0.22390503,-0.628657,-8.84478,5.985504E-4,1.1480197,-0.05965305,-0.12929265,0.05392742,13.85975487,100.51795929,-22.524810791015625
1644645236814,191.10938,-178.09375,-85.609375,7.2375,-81.76875,18.300001,-1.6663551,-0.5028886,-0.84485114,-10.305841,0.019752163,-0.8206126,0.0074566314,-0.05898728,0.032622762,13.85975487,100.51795929,-22.524810791015625
1644645236917,191.125,-178.04688,-85.921875,7.8375,-80.53125,18.2625,0.16468716,0.13761097,-1.674014,-8.729858,-0.16759412,-1.6256629,-0.049000718,-0.0035951615,0.04220986,13.85975487,100.51795929,-22.524810791015625
1644645237018,191.09375,-178.0625,-86.109375,6.6375003,-80.26875,17.775002,-0.0587883,0.25621846,-0.8812285,-8.820838,0.091578215,-0.3657143,-0.10865377,-0.022769356,0.050731722,13.85975487,100.51795929,-22.524810791015625
1644645237123,191.5,-178.40625,-86.234375,6.0,-80.86875,18.0375,-1.1949368,0.41876268,1.3277601,-9.578004,0.84814596,-0.16938977,0.07030538,-0.0952052,0.047536023,13.85974602,100.51800825,-21.973480224609375
1644645237227,191.5,-178.375,-85.953125,7.0125003,-81.24375,17.325,-0.7978344,0.2168802,0.2451505,-9.208698,0.8002619,0.46806642,0.054326884,-0.013182258,0.029427063,13.85974602,100.51800825,-21.973480224609375
1644645237329,191.84375,-178.6875,-86.078125,6.7125,-82.818756,18.16875,-0.7132559,-0.5698597,-0.33671358,-9.592369,0.3693056,2.0009542,0.03515269,-3.9946238E-4,0.0027962367,13.85974602,100.51800825,-21.973480224609375
1644645237431,190.48438,-177.375,-86.1875,6.2812505,-82.6875,17.04375,-1.0051947,0.3089318,1.557741,-10.253169,1.7393875,0.16579847,0.040478855,-0.15059732,0.023035664,13.85974602,100.51800825,-21.973480224609375
1644645237533,189.95312,-176.85938,-85.859375,6.0375004,-82.3125,16.03125,0.07614803,0.7932367,0.4398214,-10.5362835,0.24959552,-1.9847932,-0.006391398,-0.047269717,0.04327509,13.85974602,100.51800825,-21.973480224609375
1644645237637,191.1875,-177.95312,-87.484375,7.0687504,-83.64375,14.3625,-1.5279675,1.289793,0.44125044,-10.986393,1.365892,0.14185645,-0.025565593,0.030492295,0.08481918,13.85974602,100.51800825,-21.973480224609375
1644645237738,191.26562,-177.96875,-87.5,7.1625004,-82.631256,15.093751,0.13270473,-0.19447482,-1.5415741,-8.227076,0.7332243,1.3784616,-0.03515269,0.044340324,-3.9946238E-4,13.85974602,100.51800825,-21.973480224609375
1644645237846,190.76562,-177.39062,-87.046875,7.5937505,-81.131256,14.38125,0.13017082,-0.6699717,1.0301319,-8.418612,0.13467385,0.19512744,0.046870254,-0.08455287,-0.021704122,13.85974602,100.51800825,-21.973480224609375
1644645237954,189.78125,-176.26562,-86.265625,6.4687505,-79.9875,13.63125,1.3617144,0.49252245,0.41190833,-9.343372,-0.08559271,-2.1769278,-0.02130466,0.058188353,-0.012117025,13.85974602,100.51800825,-21.973480224609375
1644645238056,189.78125,-176.25,-86.234375,7.51875,-79.0875,14.231251,0.7167425,-0.33696353,-0.10333684,-9.271546,-0.8475474,0.20470424,-0.06391398,0.13275467,0.06031882,13.85974602,100.51800825,-21.973480224609375
1644645238156,191.21875,-177.53125,-86.953125,6.675,-78.7125,13.950001,0.68544865,-1.4998214,1.4896873,-9.515755,-0.9672575,1.1719618,0.036217924,-0.011051793,-0.015312725,13.85974547,100.51807286,-21.8857421875
1644645238257,191.4375,-177.65625,-87.09375,6.4500003,-77.7375,13.481251,-0.21311665,-0.20738925,0.8135071,-9.0554695,0.5895722,-0.3369839,0.026630826,-0.0920095,0.008122402,13.85974547,100.51807286,-21.8857421875
1644645238359,192.84375,-178.98438,-87.75,6.1875005,-76.275,13.275001,-1.0742178,1.462505,-0.5987171,-11.039065,1.6196774,-1.6543933,-0.04260932,-0.08029194,0.077362545,13.85974547,100.51807286,-21.8857421875
1644645238459,192.10938,-178.3125,-87.375,6.9375005,-75.28125,13.087501,0.4423008,1.4720819,0.044388026,-10.608109,0.8194155,-2.1338322,-0.08415341,0.013448567,0.013448567,13.85974547,100.51807286,-21.8857421875
1644645238561,191.375,-177.51562,-87.375,6.9187503,-76.068756,13.837501,-1.264368,1.0205452,2.5124013,-12.576741,-0.6655881,-0.3321955,-0.07243585,0.009187635,0.09547151,13.85974547,100.51807286,-21.8857421875
1644645238665,191.375,-177.48438,-87.3125,7.4437504,-76.068756,14.45625,-1.8051853,-0.13209724,1.3397921,-10.028113,0.85772276,0.6739678,0.041544087,-0.16338012,0.030492295,13.85974547,100.51807286,-21.8857421875
1644645238769,190.96875,-177.15625,-86.765625,6.9750004,-76.762505,14.2875,-0.74266815,1.4766643,0.6178651,-11.0247,1.5191209,-1.9369092,0.006391398,-0.12183603,0.0177095,13.85974547,100.51807286,-21.8857421875
1644645238874,192.5,-178.5625,-88.25,8.025001,-76.6875,13.89375,-0.5561609,0.8325902,-0.84289646,-9.645041,1.0115502,-0.30346507,-0.07137061,0.008122402,0.05392742,13.85974547,100.51807286,-21.8857421875
1644645238975,192.03125,-178.10938,-87.859375,7.8375,-75.168755,13.70625,-0.5600319,0.047814667,-0.10193282,-9.927557,0.6805518,1.0666169,-0.033022225,0.044340324,0.024100898,13.85974547,100.51807286,-21.8857421875
1644645239075,192.03125,-178.15625,-87.5625,8.8125,-73.481255,12.562501,1.3067093,0.10393587,0.6162539,-9.419987,-0.6895301,-1.3623008,-0.06284875,-0.043008782,0.030492295,13.85974547,100.51807286,-21.8857421875
1644645239177,192.09375,-178.125,-87.9375,8.15625,-72.600006,13.8,-0.4092245,-0.2841332,1.000946,-9.592369,-0.40701428,0.11312603,0.003195699,-0.025965055,0.02516613,13.8597415,100.51812478,-21.26361083984375
1644645239279,191.28125,-177.35938,-86.96875,9.225,-72.20625,15.431251,-0.9309387,0.6268766,0.88972133,-11.480197,0.54647654,-1.2665327,-0.030891757,-0.11011846,0.012383334,13.8597415,100.51812478,-21.26361083984375
1644645239383,191.09375,-177.125,-86.921875,9.375,-72.1125,16.63125,-0.39561367,0.56188,-1.5178305,-9.314642,1.0354922,-1.4772224,-0.049000718,-0.111183695,0.004926703,13.8597415,100.51812478,-21.26361083984375
1644645239486,191.14062,-177.17188,-87.0625,8.38125,-71.49375,15.8625,-1.2959385,0.49294132,-0.8494562,-9.79827,1.3706805,-0.23163901,0.0,-0.0792267,0.051796954,13.8597415,100.51812478,-21.26361083984375
1644645239588,190.96875,-176.96875,-86.671875,8.475,-72.693756,16.81875,0.42845058,0.7030899,-1.3440626,-9.53012,1.0163386,-1.271321,-0.036217924,-0.02063889,0.023035664,13.8597415,100.51812478,-21.26361083984375
1644645239701,191.79688,-177.73438,-86.859375,8.4375,-73.481255,17.1375,-1.1255102,0.296323,1.9892046,-10.483611,-0.047285482,0.91338795,-0.023435127,-0.14527115,0.0145138,13.8597415,100.51812478,-21.26361083984375
1644645239796,193.125,-179.01562,-87.96875,8.53125,-74.100006,17.79375,-0.98916054,-1.146291,1.8607464,-10.555437,-1.1540052,0.81283146,0.043674555,-0.08668334,-0.012117025,13.8597415,100.51812478,-21.26361083984375
1644645239901,191.78125,-177.65625,-86.921875,9.375,-74.287506,17.962502,0.44482708,-0.2001631,-0.21778193,-8.758589,-0.013766659,-0.28431144,-0.019174194,-3.9946238E-4,0.0177095,13.8597415,100.51812478,-21.26361083984375
1644645240002,191.8125,-177.71875,-87.34375,8.625,-74.08125,16.6875,0.9510603,-0.74234813,-0.085562795,-8.346786,0.048482586,0.5542577,0.023435127,0.07097115,-0.027030287,13.8597415,100.51812478,-21.26361083984375
1644645240113,191.90625,-177.79688,-87.375,9.13125,-74.043755,17.60625,1.300293,-1.1976264,-0.93906105,-9.539697,-1.1731589,-1.1563994,-0.005326165,0.22649518,-0.029160755,13.8597415,100.51812478,-21.26361083984375
1644645240213,192.53125,-178.375,-87.8125,8.53125,-75.4875,17.4375,-0.84876347,-1.8828499,1.2405837,-7.2065473,-2.2559366,1.38325,-0.013848029,-0.19001094,0.13808084,13.85973369,100.5181907,-21.71295166015625
1644645240313,192.54688,-178.35938,-87.609375,9.4125,-75.881256,17.4375,1.1383114,-0.3467554,-3.0596607,-4.144962,-0.5746084,-0.58119243,-0.099066675,-0.2049242,-0.00998656,13.85973369,100.5181907,-21.71295166015625
1644645240418,192.57812,-178.4375,-86.546875,8.53125,-76.106255,18.618752,0.80580807,0.62285537,-1.7900515,-8.959702,-1.0055647,-1.1180922,-0.17043728,0.032622762,0.0059919357,13.85973369,100.5181907,-21.71295166015625
1644645240522,192.17188,-178.07812,-86.3125,8.8125,-75.95625,18.056252,1.7145834,-3.104447,1.9452988,-7.417237,-4.795586,0.61650693,-0.07989248,-0.062182978,0.107189074,13.85973369,100.5181907,-21.71295166015625
1644645240630,192.35938,-178.20312,-86.484375,8.175,-77.381256,18.675001,3.3730774,2.5722692,3.4370627,-7.627927,2.9993362,-2.0374656,0.21304661,6.657706E-4,-0.025965055,13.85973369,100.5181907,-21.71295166015625
1644645240723,192.51562,-178.5,-86.859375,8.775001,-77.9625,18.075,-0.043346405,-0.9256277,-0.4854649,-5.3235073,0.44113165,-3.1346085,0.09374051,-0.20066327,0.013448567,13.85973369,100.5181907,-21.71295166015625
1644645240833,192.71875,-178.64062,-87.078125,8.25,-79.33125,18.206251,1.1321201,0.07699934,-1.1917378,-8.5622635,-1.2886791,-0.74399817,-0.109719,0.15725502,0.085884415,13.85973369,100.5181907,-21.71295166015625
1644645240933,192.34375,-178.35938,-86.921875,8.025001,-80.11875,17.98125,-0.11666393,-1.1095973,1.3970847,-9.5971575,-2.2272062,2.4181437,-0.12995844,-0.07709624,0.018774733,13.85973369,100.5181907,-21.71295166015625
1644645241035,192.3125,-178.46875,-86.859375,7.05,-79.6125,17.75625,-0.3351698,-0.55529225,0.34157866,-8.101978,-1.0965444,-0.107140526,-0.052196417,-0.06857438,0.10612384,13.85973369,100.5181907,-21.71295166015625
1644645241139,192.54688,-178.67188,-86.765625,6.24375,-79.012505,15.900001,-0.27368355,-0.34072113,0.87513113,-9.108142,-0.50278234,-0.26994625,-0.006391398,-0.12290126,0.047536023,13.85972807,100.51824829,-21.814422607421875
1644645241240,192.23438,-178.57812,-86.71875,6.20625,-78.225006,15.075001,0.03733349,0.21782562,0.15007403,-9.64983,-0.090381116,-1.7645266,-0.057522584,-0.16338012,0.0059919357,13.85972807,100.51824829,-21.814422607421875
1644645241344,192.42188,-178.625,-86.640625,6.5062504,-77.043755,14.962501,-1.0335512,0.46578702,-0.814453,-8.93576,-0.13347675,-0.801459,-0.052196417,-0.019573657,0.100797676,13.85972807,100.51824829,-21.814422607421875
1644645241445,192.34375,-178.64062,-86.625,5.86875,-76.950005,13.743751,-1.1335497,1.0949934,-0.02308467,-11.240178,0.57999533,-0.41359833,-0.07776201,0.019839965,0.063514516,13.85972807,100.51824829,-21.814422607421875
1644645241546,192.40625,-178.65625,-86.625,5.6625004,-76.18125,13.70625,0.005850792,0.20819879,-0.27836132,-9.635465,-0.45968673,-0.54288524,-0.13848029,-0.05366111,0.023035664,13.85972807,100.51824829,-21.814422607421875
1644645241652,192.48438,-178.70312,-86.671875,6.6375003,-76.21875,12.7875,-2.4761925,-1.4876467,0.29055366,-4.681263,0.47465047,0.89423436,0.08095771,-0.37855718,0.015579033,13.85972807,100.51824829,-21.814422607421875
1644645241751,192.3125,-178.59375,-86.625,7.4437504,-75.24375,12.01875,6.777092,-0.6869914,0.8378775,-4.5567646,-0.47405192,-7.787141,0.105458066,-0.2240984,-0.03555215,13.85972807,100.51824829,-21.814422607421875
1644645241857,192.40625,-178.625,-86.546875,7.36875,-75.168755,11.868751,2.5940523,-0.051267773,-2.609984,-7.4363904,0.31663316,-2.2152352,0.033022225,0.25738692,0.012383334,13.85972807,100.51824829,-21.814422607421875
1644645241964,192.5,-178.75,-86.65625,8.306251,-74.850006,11.08125,1.9088292,-1.6146615,2.8943996,-8.859145,0.16340427,5.009867,0.10865377,0.2765611,-0.11544463,13.85972807,100.51824829,-21.814422607421875
1644645242063,192.5625,-178.84375,-86.390625,9.0375,-75.28125,12.20625,3.8436422,-3.53895,2.5619924,-6.2339025,-5.106832,3.0262709,-0.13848029,0.12955897,-0.04833495,13.85972807,100.51824829,-21.814422607421875
1644645242172,192.25,-178.54688,-86.625,9.28125,-74.568756,13.481251,-1.7243719,0.87340546,0.5352282,-12.658743,4.4418426,-1.0223241,0.30146095,0.09227581,-0.088813804,13.85972337,100.51830511,-21.6787109375
1644645242271,192.09375,-178.4375,-86.4375,9.0375,-75.356255,14.606251,1.9421406,-2.6165345,0.54774714,-7.493851,0.28311434,-0.6099229,0.22369893,0.13275467,-0.10585753,13.85972337,100.51830511,-21.6787109375
1644645242372,191.82812,-178.5,-86.5,9.262501,-75.637505,16.462502,2.4473162,-1.1435709,-1.1932188,-7.5848308,0.8912416,-1.055843,0.19813335,0.18921201,-0.1015966,13.85972337,100.51830511,-21.6787109375
1644645242472,192.26562,-178.60938,-86.453125,8.606251,-74.887505,16.5375,1.7053967,-1.282105,-1.5153885,-9.045893,-1.1492168,-0.7918822,-0.034087457,0.06884068,-0.06857438,13.85972337,100.51830511,-21.6787109375
1644645242573,191.90625,-178.34375,-86.359375,8.53125,-76.51875,16.425001,1.5593452,-2.4604485,-0.25203907,-7.101202,-1.3940239,0.79367787,0.08521864,0.06564499,-0.03555215,13.85972337,100.51830511,-21.6787109375
1644645242678,191.98438,-178.35938,-86.390625,10.012501,-77.512505,15.975,2.0047183,-1.4551425,0.19875067,-7.9966335,-0.061650693,-0.17417817,0.13528459,0.041144624,-0.07390054,13.85972337,100.51830511,-21.6787109375
1644645242776,192.3125,-178.5625,-86.328125,9.0,-77.7375,14.55,2.1800704,-1.0747733,-0.06720954,-7.651869,-0.8331822,-0.26036942,0.005326165,0.03155753,-0.03874785,13.85972337,100.51830511,-21.6787109375
1644645242881,192.25,-178.51562,-86.40625,10.25625,-76.96875,13.406251,1.8432779,-1.1977662,-0.42520255,-8.30369,-1.3748703,-0.729633,-0.022369893,0.07097115,-0.0046603945,13.85972337,100.51830511,-21.6787109375
1644645242986,192.5625,-178.60938,-86.40625,10.950001,-77.26875,11.606251,-0.16840363,-1.7277402,-0.032212436,-8.672397,-1.2354081,1.6130934,0.039413624,0.02197043,-0.016377958,13.85972337,100.51830511,-21.6787109375
1644645243087,192.4375,-178.5625,-86.515625,12.431251,-76.0875,11.118751,0.02122879,-1.2381011,0.75586706,-8.222287,-0.91937345,0.7505822,0.049000718,-0.051530648,0.0017310036,13.85972337,100.51830511,-21.6787109375
1644645243201,191.89062,-178.03125,-85.828125,13.6125,-73.425,9.6,0.54826546,-0.3669939,-1.7452316,-9.922769,1.6915035,-1.4341269,0.08628388,0.1210371,-0.0792267,13.85972071,100.51836287,-21.413421630859375
1644645243303,192.26562,-178.32812,-85.84375,14.700001,-72.8625,9.225,1.1796627,-0.19305559,-0.2785312,-9.506178,1.1025299,-1.8267759,0.121436566,0.05925359,-0.08348764,13.85972071,100.51836287,-21.413421630859375
1644645243402,192.07812,-178.21875,-85.8125,15.975,-69.262505,10.012501,2.604021,-0.15866446,-0.5185411,-9.448717,-0.36870706,-3.5182793,0.041544087,0.11251524,-0.04194355,13.85972071,100.51836287,-21.413421630859375
1644645243502,192.21875,-178.29688,-85.734375,15.562501,-66.09375,9.975,1.5953531,-0.40546125,-0.8491362,-9.779117,-0.4405331,0.35314476,-0.038348388,0.15192886,0.0027962367,13.85972071,100.51836287,-21.413421630859375
1644645243602,192.14062,-178.32812,-85.828125,16.85625,-63.61875,12.750001,1.3239603,-0.7586394,0.64326334,-8.787319,-1.5328877,0.89902276,-0.050065953,0.04220986,-0.007856093,13.85972071,100.51836287,-21.413421630859375
1644645243707,192.9375,-179.01562,-84.734375,17.38125,-61.725002,13.968751,1.1664867,-0.6730585,0.5885966,-7.785944,0.42197806,-1.8986019,0.08521864,-0.033421688,-0.04087832,13.85972071,100.51836287,-21.413421630859375
1644645243803,192.96875,-179.03125,-84.859375,17.493752,-59.9625,17.025002,0.30610275,0.0034392774,-0.6594259,-9.117719,0.8098387,-2.0518308,0.040478855,-0.04513925,-0.016377958,13.85972071,100.51836287,-21.413421630859375
1644645243912,192.01562,-178.1875,-85.046875,17.081251,-59.7,20.400002,0.025318146,0.6188987,-1.4988427,-9.774328,0.6805518,-0.84455466,-0.047935486,0.028361829,0.009187635,13.85972071,100.51836287,-21.413421630859375
1644645244016,191.28125,-177.51562,-84.125,15.918751,-60.000004,21.431252,0.4690113,0.09349421,-0.9230596,-9.855731,-0.09995792,-0.87328506,-0.099066675,0.11677617,0.034753226,13.85972071,100.51836287,-21.413421630859375
1644645244121,192.14062,-178.25,-85.125,14.812501,-61.66875,24.900002,0.29362392,-0.937097,1.7595501,-9.956287,-0.6368576,0.3196259,0.057522584,-0.0046603945,-0.030225987,13.85972071,100.51836287,-21.413421630859375
1644645244227,192.04688,-178.20312,-84.265625,14.08125,-64.21875,27.806252,0.39690304,-1.2784858,0.38374454,-8.916606,0.13946225,-0.42796355,0.11824086,-0.02063889,-0.04620448,13.85970937,100.518433,-21.464447021484375
1644645244325,192.125,-178.26562,-84.40625,11.962501,-67.425,30.35625,0.6759567,-0.4347407,-0.5077459,-8.533533,-0.11911154,-1.4149733,0.006391398,-0.013182258,0.013448567,13.85970937,100.518433,-21.464447021484375
1644645244427,192.03125,-178.20312,-84.875,10.25625,-71.08125,32.9625,2.4367633,-0.4095967,0.51224715,-6.0040593,0.96306765,2.1254525,0.022369893,0.04220986,-0.014247492,13.85970937,100.518433,-21.464447021484375
1644645244527,191.82812,-178.0625,-84.1875,7.4437504,-75.28125,34.10625,2.02345,-0.83272105,-0.37229294,-6.976105,-0.047285482,-1.2521675,0.055392116,-0.03129122,-0.04087832,13.85970937,100.518433,-21.464447021484375
1644645244637,192.95312,-179.03125,-84.71875,6.43125,-81.525,35.568752,1.8618116,0.010947645,0.7189301,-9.5732155,-0.17238252,-2.5169046,0.014913263,0.08694965,0.016644266,13.85970937,100.518433,-21.464447021484375
1644645244738,192.90625,-178.9375,-84.59375,5.1375003,-87.131256,35.25,-0.3568945,-1.1630578,1.7173481,-9.673772,-0.7038953,1.5747862,0.09480574,-0.0014646954,-0.012117025,13.85970937,100.518433,-21.464447021484375
1644645244843,192.79688,-178.92188,-84.6875,2.98125,-93.131256,34.55625,0.81178665,-0.08104174,-0.6842239,-10.550649,0.89603,-1.3383588,0.041544087,0.054992653,-0.06857438,13.85970937,100.518433,-21.464447021484375
1644645244943,192.9375,-179.01562,-84.625,2.2125,-97.51875,32.475002,1.5151186,-0.35233814,-0.25547838,-9.448717,-0.320823,-2.8329391,0.03515269,0.08055825,-0.036617383,13.85970937,100.518433,-21.464447021484375
1644645245045,192.875,-178.95312,-84.6875,0.8625,-101.231255,29.2875,0.42609024,-1.032013,-0.07144117,-9.472659,-0.94331545,0.0796072,0.030891757,0.08268871,0.0017310036,13.85970937,100.518433,-21.464447021484375
1644645245157,192.95312,-179.01562,-84.65625,1.1437501,-104.62501,25.2,1.0828009,-0.2951056,-0.5645963,-8.648455,0.45549688,-1.496376,0.054326884,-0.0014646954,-0.018508423,13.85970438,100.51849667,-21.602996826171875
1644645245254,193.03125,-179.10938,-84.609375,1.81875,-105.65626,20.38125,1.2897177,-0.56647956,-2.06171,-7.2831616,-0.31603462,0.2717419,-0.005326165,0.13595037,0.010252868,13.85970438,100.51849667,-21.602996826171875
1644645245359,192.4375,-178.59375,-84.65625,2.5875,-104.26875,16.63125,1.0683842,-1.7557449,1.1690619,-8.998009,-1.2306197,0.38187516,0.07350108,0.018774733,-0.025965055,13.85970438,100.51849667,-21.602996826171875
1644645245463,192.46875,-178.57812,-84.84375,3.91875,-102.24375,12.337501,1.8595057,-0.8867327,-1.3360753,-7.9391727,0.24480712,-0.66738373,0.026630826,0.09440628,-0.06537867,13.85970438,100.51849667,-21.602996826171875
1644645245563,192.375,-178.51562,-84.96875,6.8625,-100.03126,10.70625,0.7615042,-0.4262004,-0.43996328,-8.150461,-0.18674773,-0.9259575,0.047935486,0.037948925,-0.012117025,13.85970438,100.51849667,-21.602996826171875
1644645245677,192.89062,-179.0,-86.03125,9.056251,-96.543755,9.31875,-0.19616318,-0.7999073,0.2565853,-10.828376,0.24480712,-0.12629414,0.056457352,0.051796954,-0.013182258,13.85970438,100.51849667,-21.602996826171875
1644645245775,192.95312,-179.0,-85.921875,11.26875,-94.14375,9.75,0.49467945,-0.5977553,0.6041628,-10.296265,-0.018555064,0.2621651,0.04260932,0.024100898,-0.061117746,13.85970438,100.51849667,-21.602996826171875
1644645245890,192.03125,-178.17188,-85.9375,12.562501,-92.175,10.59375,0.51230335,1.1716042,-0.49689448,-10.713454,0.6805518,-2.2535424,-0.06391398,0.05925359,0.019839965,13.85970438,100.51849667,-21.602996826171875
1644645245995,192.71875,-178.8125,-85.234375,14.26875,-88.125,9.95625,0.17387962,0.22970644,0.3160353,-10.296265,0.04369418,0.046088383,0.026630826,0.07097115,-0.022769356,13.85970438,100.51849667,-21.602996826171875
1644645246090,192.65625,-178.73438,-85.078125,14.793751,-86.662506,10.387501,0.2283392,-0.46828398,0.0825398,-9.985018,-0.11432313,-0.27473465,-0.001065233,0.04966649,-0.00998656,13.85970438,100.51849667,-21.602996826171875
1644645246191,192.51562,-178.59375,-86.203125,15.543751,-84.46875,10.462501,0.88559246,-0.5317538,1.6901822,-9.050681,-1.1444284,-1.1133038,0.022369893,-0.047269717,0.040079392,13.85970157,100.5185717,-21.21795654296875
1644645246295,191.45312,-177.64062,-85.484375,15.4875,-83.3625,10.06875,1.3207674,-0.6837518,1.3563704,-9.242816,-0.56982,-1.2378023,0.041544087,-0.04194355,-0.04620448,13.85970157,100.5185717,-21.21795654296875
1644645246400,192.92188,-179.01562,-86.4375,15.356251,-81.787506,11.38125,0.688756,0.058912992,-0.8927614,-9.036316,0.13946225,-2.0135236,-0.029826526,-0.013182258,-0.018508423,13.85970157,100.5185717,-21.21795654296875
1644645246502,193.21875,-179.28125,-86.96875,14.718751,-78.76875,10.6125,0.62994576,2.3428714,-2.6903164,-8.54311,1.7489643,-2.8377275,-0.13954553,0.050731722,0.024100898,13.85970157,100.5185717,-21.21795654296875
1644645246603,191.78125,-177.92188,-85.484375,14.38125,-78.39375,13.312501,-0.8520584,1.7801625,-1.6731104,-10.354323,1.3994108,0.44891283,-0.10226237,0.09227581,0.077362545,13.85970157,100.5185717,-21.21795654296875
1644645246704,192.85938,-178.92188,-86.875,14.38125,-77.700005,14.400001,-0.97262573,-1.175478,0.3917666,-10.474034,-1.1061212,2.1637597,-0.01065233,-0.019573657,-0.015312725,13.85970157,100.5185717,-21.21795654296875
1644645246813,192.75,-178.90625,-86.828125,12.750001,-78.46875,16.48125,-0.25458908,-1.6248915,0.68366295,-8.66282,-0.061650693,0.19512744,0.11824086,-0.118640326,-0.11544463,13.85970157,100.5185717,-21.21795654296875
1644645246907,193.0,-179.03125,-86.890625,12.150001,-77.793755,18.618752,-0.9511957,0.5485694,0.899389,-8.830415,0.3788824,-1.4101849,0.005326165,-0.14846686,0.06671022,13.85970157,100.5185717,-21.21795654296875
1644645247012,192.89062,-178.95312,-86.875,10.275001,-77.08125,17.71875,0.8640194,1.1455742,-3.3692799,-7.1873937,1.1695676,-1.7980455,-0.12356703,-0.027030287,0.06564499,13.85970157,100.5185717,-21.21795654296875
1644645247116,192.84375,-178.92188,-86.703125,9.375,-77.606255,19.1625,0.8892603,0.7657956,-0.8992918,-8.619724,-0.8619126,0.7218518,-0.22050324,-0.023834588,0.051796954,13.85970157,100.5185717,-21.21795654296875
1644645247220,192.79688,-178.89062,-86.734375,8.175,-77.025,19.78125,-1.4363575,0.15948367,1.4666708,-7.5704656,-0.8571242,2.7964275,-0.049000718,-0.17190199,0.06884068,13.85969924,100.51864525,-22.038299560546875
1644645247321,192.82812,-178.89062,-86.484375,7.9500003,-77.55,20.737501,-1.7036648,2.025967,1.3064208,-10.032902,1.2653356,-1.5969325,-0.034087457,-0.2145113,0.08162348,13.85969924,100.51864525,-22.038299560546875
1644645247427,192.64062,-178.76562,-86.546875,6.7875004,-77.8125,20.775002,0.50268936,0.6866284,-1.7641914,-8.174403,0.4842273,-0.6290765,-0.10226237,-0.0035951615,0.058188353,13.85969924,100.51864525,-22.038299560546875
1644645247527,192.75,-178.76562,-86.625,6.61875,-76.875,21.375,0.3209114,-0.21859117,-0.8823108,-9.156026,-0.4405331,-0.45669398,-0.08628388,-0.022769356,0.0177095,13.85969924,100.51864525,-22.038299560546875
1644645247633,192.82812,-178.76562,-86.515625,5.5875,-79.55625,21.806252,-1.6378784,-0.24661948,1.9900553,-10.181343,-0.7278373,-1.0271125,0.04260932,-0.22835933,0.020905199,13.85969924,100.51864525,-22.038299560546875
1644645247738,192.85938,-178.78125,-86.5,5.34375,-79.012505,22.21875,-0.2197609,2.81775,-1.7192911,-10.790069,1.1456255,-3.4464533,-0.106523305,-0.016377958,0.06031882,13.85969924,100.51864525,-22.038299560546875
1644645247839,193.125,-178.875,-86.46875,4.65,-80.925,20.737501,-1.2163363,1.9858531,-0.6189181,-11.206659,1.8495208,1.977012,-0.090544805,0.13488513,0.02197043,13.85969924,100.51864525,-22.038299560546875
1644645247948,193.07812,-178.82812,-86.484375,4.5375004,-81.01875,20.04375,-1.6052685,0.9803121,3.6721742,-10.962451,2.0506337,0.9804256,0.13848029,-0.12822743,-0.00998656,13.85969924,100.51864525,-22.038299560546875
1644645248043,193.57812,-179.25,-86.09375,3.8625002,-80.25,19.10625,1.6001167,-1.8622205,2.3287358,-9.592369,-0.17238252,-0.9744401,0.15552402,0.04220986,-0.07070484,13.85969924,100.51864525,-22.038299560546875
1644645248152,193.90625,-179.32812,-86.09375,4.2562504,-78.76875,18.4125,0.68045044,-1.0475672,-0.8662268,-9.534908,0.9487024,-2.0907366,0.15658925,0.06564499,-0.08135717,13.85969666,100.51872879,-22.04327392578125
1644645248253,194.17188,-179.35938,-85.96875,5.3250003,-78.75,16.78125,1.3926315,-0.15546508,-1.071501,-9.702502,0.18734628,-2.794632,0.017043728,0.06671022,-0.03768262,13.85969666,100.51872879,-22.04327392578125
1644645248357,194.3125,-179.39062,-85.875,6.3187504,-76.40625,17.325,1.5179634,-2.155071,-0.64494586,-8.203134,-1.3317747,0.8415619,-0.023435127,0.19027725,-0.03555215,13.85969666,100.51872879,-22.04327392578125
1644645248458,194.625,-179.5,-85.921875,6.6375003,-76.425,17.5125,1.1186571,-2.1240528,1.1126869,-8.744224,-1.2689269,0.19512744,0.111849464,0.05605789,-0.05259588,13.85969666,100.51872879,-22.04327392578125
1644645248562,194.67188,-179.51562,-86.015625,8.25,-75.787506,17.681252,2.1689272,-2.03399,-0.12647069,-8.72507,-0.90021986,-1.5107412,0.08521864,0.10612384,-0.047269717,13.85969666,100.51872879,-22.04327392578125
1644645248672,194.65625,-179.46875,-86.140625,7.9875,-74.662506,18.900002,-0.3498211,0.04674101,0.5775552,-10.919355,0.87687635,0.03172317,0.028761292,0.036883693,-0.044074018,13.85969666,100.51872879,-22.04327392578125
1644645248772,194.71875,-179.48438,-86.078125,8.0625,-74.08125,19.331251,-1.3980598,0.58772486,2.3744655,-12.773664,2.7263973,-3.4799721,0.20452474,-0.13994499,-0.09307474,13.85969666,100.51872879,-22.04327392578125
1644645248872,195.32812,179.89062,-85.609375,7.55625,-75.05625,19.931252,1.34056,-0.04016827,-0.8190627,-10.521918,4.446631,-4.3035774,0.2780258,0.1370156,-0.14207545,13.85969666,100.51872879,-22.04327392578125
1644645248979,195.26562,179.92188,-85.53125,7.2187505,-74.381256,19.21875,1.577014,0.780931,-0.0028970838,-14.033613,1.4137762,-2.3349452,0.14274122,0.504521,-0.16018441,13.85969666,100.51872879,-22.04327392578125
1644645249083,195.25,179.89062,-85.765625,8.512501,-75.65625,19.10625,3.6988926,-4.114664,2.9165282,-9.764751,-0.7517793,-0.13587095,0.5017248,0.4075848,-0.23475073,13.85969666,100.51872879,-22.04327392578125
1644645249189,195.39062,179.76562,-85.875,8.7375,-73.725006,16.931252,-0.35289764,-0.45492524,-1.4789414,-12.595895,3.5553896,-1.3623008,0.36217922,0.35219267,-0.28481668,13.85968043,100.51880913,-22.65814208984375
1644645249290,195.32812,179.75,-85.6875,9.58125,-73.0875,17.493752,4.999982,-3.5260465,-0.3952018,-9.419987,-1.5520413,-1.1420342,0.2386122,0.43528083,-0.22622886,13.85968043,100.51880913,-22.65814208984375
1644645249396,194.875,179.9375,-85.921875,9.28125,-72.46875,17.5125,1.8392072,-3.4211054,2.4718475,-11.0247,-1.1444284,1.6274586,0.30465665,0.29467008,-0.24220736,13.85968043,100.51880913,-22.65814208984375
1644645249497,194.92188,179.90625,-85.859375,9.993751,-71.3625,19.0125,3.0682282,-2.871584,1.9373264,-8.729858,-0.9911995,-0.55246204,0.26524302,0.18175538,-0.17403245,13.85968043,100.51880913,-22.65814208984375
1644645249599,194.89062,179.85938,-85.640625,10.44375,-71.006256,21.525002,3.1025877,-2.3503468,-0.4937681,-7.752425,-0.7469909,0.15143326,0.13421936,0.17110306,-0.14420593,13.85968043,100.51880913,-22.65814208984375
1644645249699,194.45312,180.0,-85.84375,9.675,-72.58125,24.993752,2.80412,-1.9410053,0.9006046,-7.0964136,-1.8393455,-0.47105917,0.050065953,0.08481918,-0.012117025,13.85968043,100.51880913,-22.65814208984375
1644645249800,194.84375,179.76562,-85.65625,10.03125,-74.662506,27.2625,1.2435474,-0.62906545,0.41603538,-7.800309,-0.6703765,0.08439561,0.04260932,-0.0014646954,-0.0057256273,13.85968043,100.51880913,-22.65814208984375
1644645249907,194.5625,179.82812,-85.859375,8.85,-78.15,27.7875,0.07222462,-1.1753949,-1.509443,-7.699753,0.0676362,2.40318,-0.057522584,0.023035664,-0.0057256273,13.85968043,100.51880913,-22.65814208984375
1644645250002,194.67188,179.73438,-85.78125,7.8,-78.39375,27.13125,-0.7919264,0.4756909,1.1102493,-10.281899,-0.2873042,1.6801311,-0.07882725,0.007057169,0.054992653,13.85968043,100.51880913,-22.65814208984375
1644645250107,194.71875,179.73438,-85.796875,5.9625,-81.787506,27.281252,-0.5559578,0.31594676,1.7711269,-10.411784,0.2112883,-1.0319009,-0.017043728,-0.1047923,0.037948925,13.85968043,100.51880913,-22.65814208984375
1644645250213,194.70312,179.76562,-85.859375,5.6062503,-81.24375,25.7625,-1.5956631,5.2876167,-0.13255706,-13.123219,0.84814596,-9.674371,-0.23009034,-0.34873065,0.31597474,13.85966786,100.51889193,-22.59295654296875
1644645250316,194.89062,179.73438,-85.78125,5.5687504,-83.850006,23.98125,0.06893158,6.9205856,-6.597542,-14.651318,9.572617,-8.41921,-0.5049205,0.28721344,-0.04087832,13.85966786,100.51889193,-22.59295654296875
1644645250423,194.90625,179.75,-85.765625,6.5437503,-84.037506,23.75625,-3.5693512,1.7934527,0.8245758,-13.400946,-0.62728083,4.228759,-0.21411183,0.040079392,0.11251524,13.85966786,100.51889193,-22.59295654296875
1644645250524,194.28125,-0.3125,-89.515625,6.1125,-83.90625,21.393751,0.2855444,-6.6365876,15.36183,-14.756662,-2.4959552,8.076241,0.67003155,-0.18468477,-0.23048979,13.85966786,100.51889193,-22.59295654296875
1644645250624,194.76562,-0.234375,-89.671875,6.6000004,-83.2125,21.243752,2.8806748,-2.749512,2.9756901,-8.106767,-0.36870706,-1.0175357,0.28548244,-0.13568406,-0.16231488,13.85966786,100.51889193,-22.59295654296875
1644645250727,194.48438,-0.21875,-89.78125,6.80625,-85.18125,19.40625,3.7780209,0.10177921,-0.95195156,-6.5307837,0.95827925,-2.6749218,0.1448717,0.17323352,-0.08029194,13.85966786,100.51889193,-22.59295654296875
1644645250825,194.5,-0.203125,-89.53125,6.9187503,-85.481255,17.6625,1.6193523,0.25104874,-0.81275225,-6.913856,-0.7326257,-1.9177556,-0.061783515,-0.008921326,0.03155753,13.85966786,100.51889193,-22.59295654296875
1644645250929,194.54688,-0.25,-89.5625,7.8750005,-85.51875,16.44375,1.9344049,0.19862759,-1.4860988,-7.3789296,-1.6717514,0.8798691,-0.1448717,0.17642923,0.11038477,13.85966786,100.51889193,-22.59295654296875
1644645251030,194.45312,-0.3125,-89.671875,7.2562504,-86.025,14.231251,0.411273,-0.36380154,0.5807089,-8.112154,-1.441908,3.7403417,-0.113979936,-0.0057256273,0.02516613,13.85966786,100.51889193,-22.59295654296875
1644645251134,194.51562,-0.296875,-89.609375,9.825001,-85.387505,11.26875,1.7893658,-1.513311,1.4321246,-7.6231384,-1.858499,0.94211835,-0.017043728,-0.06431344,-0.007856093,13.85966188,100.51897096,-22.42523193359375
1644645251236,194.4375,-0.34375,-89.625,9.8625,-84.99375,10.78125,-1.0165586,-0.34456548,0.69107985,-9.156026,-1.3317747,1.2006922,-0.076696776,-0.09413997,0.09760197,13.85966188,100.51897096,-22.42523193359375
1644645251337,194.46875,-0.40625,-89.5,10.575001,-84.450005,10.70625,0.48247528,-0.16842058,1.6299938,-9.5732155,-1.0821792,-0.88765025,-0.061783515,-0.1143794,0.05392742,13.85966188,100.51897096,-22.42523193359375
1644645251439,194.53125,-0.34375,-89.484375,11.08125,-84.637505,9.675,-3.6775484,1.0316377,2.0474157,-10.861895,1.5191209,0.80804306,0.051131185,-0.24220736,0.079493016,13.85966188,100.51897096,-22.42523193359375
1644645251541,194.65625,-0.34375,-89.5,10.762501,-84.1125,9.806251,1.8872242,1.2657878,-3.2273095,-6.8372416,2.8652608,-1.6543933,0.01065233,0.107189074,-0.061117746,13.85966188,100.51897096,-22.42523193359375
1644645251643,194.53125,-0.453125,-89.34375,12.056251,-84.731255,11.7375,0.7982969,1.0838403,-1.2915971,-9.539697,-0.5315128,1.1288661,-0.15019786,0.18814678,0.054992653,13.85966188,100.51897096,-22.42523193359375
1644645251747,194.4375,-0.59375,-89.328125,11.00625,-85.012505,12.0375,-0.44046688,-3.4671378,2.7776394,-8.777742,-2.48159,5.5748987,0.040478855,-0.05579158,0.032622762,13.85966188,100.51897096,-22.42523193359375
1644645251858,194.64062,-0.515625,-89.40625,11.08125,-83.08125,14.26875,1.072854,-0.8642961,1.2314823,-9.515755,-0.35913026,-1.3575124,0.024500359,-0.11650986,-0.04194355,13.85966188,100.51897096,-22.42523193359375
1644645251961,194.70312,-0.34375,-89.65625,11.15625,-82.668755,14.08125,-0.123407364,0.48861852,-1.0040501,-7.608773,0.5895722,1.0809821,-0.08095771,0.05286219,0.072036386,13.85966188,100.51897096,-22.42523193359375
1644645252065,194.78125,-0.4375,-89.546875,11.025001,-81.075005,15.468751,0.5090904,-1.3724356,2.1389968,-8.983644,-1.0247183,2.0057425,0.099066675,0.03581846,0.011318101,13.85966188,100.51897096,-22.42523193359375
1644645252167,194.57812,-0.609375,-89.359375,11.0625,-79.106255,14.981251,1.1688461,-1.2212557,2.3692956,-8.7538,-1.2354081,0.37708676,0.025565593,-0.10266183,-0.054726347,13.85965313,100.51902717,-23.1868896484375
1644645252266,194.25,-0.90625,-87.84375,9.95625,-78.975006,15.31875,0.25347042,-0.33409584,-0.04850915,-8.375516,-0.41180268,0.093972415,0.002130466,-0.039813083,0.03901416,13.85965313,100.51902717,-23.1868896484375
1644645252368,194.21875,-0.953125,-87.609375,10.425,-77.850006,14.718751,0.9307575,0.24954498,-0.75710416,-11.039065,-1.0103531,-1.2282255,-0.050065953,0.06564499,-0.025965055,13.85965313,100.51902717,-23.1868896484375
1644645252473,194.03125,-1.265625,-84.921875,11.26875,-75.675,13.200001,0.55133057,-0.7112113,0.74587214,-9.093777,-0.18195933,1.8956091,0.018108962,-0.0025299285,-0.04194355,13.85965313,100.51902717,-23.1868896484375
1644645252576,194.17188,-1.15625,-84.96875,12.450001,-75.4875,13.33125,0.40200138,-0.29929468,2.4892688,-10.200497,-0.6895301,0.35314476,0.07989248,-0.04194355,-0.022769356,13.85965313,100.51902717,-23.1868896484375
1644645252680,194.03125,-1.28125,-84.9375,12.675,-73.200005,13.500001,-0.17045689,-0.2532546,-0.2803583,-9.5013895,0.5177461,0.34835634,0.012782796,-0.04620448,-0.0014646954,13.85965313,100.51902717,-23.1868896484375
1644645252782,194.1875,-1.203125,-84.234375,12.8625,-71.4375,13.668751,0.081196785,0.086395845,-0.27666634,-9.587581,-0.018555064,1.8525136,-0.06817491,-0.0035951615,0.015579033,13.85965313,100.51902717,-23.1868896484375
1644645252889,193.53125,-1.890625,-83.75,13.406251,-72.9375,14.306251,-1.0512228,-0.1705113,0.51809454,-9.750386,0.85772276,2.8060043,0.034087457,-0.03448692,-0.008921326,13.85965313,100.51902717,-23.1868896484375
1644645252992,193.57812,-1.875,-83.859375,12.731251,-72.075005,14.19375,-0.29801083,1.4930707,-0.72629213,-9.774328,1.22224,-0.092775315,-0.060718283,-0.025965055,0.032622762,13.85965313,100.51902717,-23.1868896484375
1644645253096,193.625,-1.90625,-83.65625,12.562501,-71.568756,14.85,-1.8111877,-1.1886055,0.9375619,-10.4883995,-0.39743748,5.234922,-0.02130466,0.0038614697,-0.017443191,13.85965313,100.51902717,-23.1868896484375
1644645253195,193.57812,-1.953125,-83.640625,13.25625,-71.325005,15.13125,-2.7491274,-0.076399714,1.9039078,-10.694301,-0.05207389,0.49200845,0.019174194,-0.14314069,0.069905914,13.85964247,100.51908056,-23.480072021484375
1644645253298,193.48438,-1.96875,-83.65625,12.900001,-71.381256,15.0375,-0.8621187,1.2374107,-0.15822004,-10.042479,1.6292542,-0.55246204,-0.046870254,-0.08668334,0.030492295,13.85964247,100.51908056,-23.480072021484375
1644645253399,193.375,-2.0625,-83.796875,14.025001,-71.8125,15.562501,-1.8569212,1.5681413,-0.05658844,-10.775703,0.7092823,0.48722005,-0.1193061,-0.074965775,0.09014534,13.85964247,100.51908056,-23.480072021484375
1644645253501,193.32812,-2.125,-83.90625,14.175,-70.6875,15.50625,-1.5344114,0.8368509,-2.6989417,-9.908403,1.4903905,0.19991584,-0.08947957,0.05392742,0.04966649,13.85964247,100.51908056,-23.480072021484375
1644645253608,193.39062,-2.140625,-84.171875,13.125001,-73.36875,19.462502,-2.8525953,0.70805097,0.39775878,-13.343485,1.1839328,1.234211,-0.002130466,-0.06537867,0.013448567,13.85964247,100.51908056,-23.480072021484375
1644645253712,193.1875,-2.1875,-84.21875,12.4875,-74.34375,19.800001,-2.2408133,0.2767015,-0.19644971,-10.952874,1.0785879,0.6404489,-0.001065233,-0.13461882,-0.007856093,13.85964247,100.51908056,-23.480072021484375
1644645253818,193.28125,-2.171875,-84.34375,12.900001,-74.90625,19.987501,-1.3256941,0.84547186,1.0181456,-10.952874,1.4089876,0.9756372,0.01065233,-0.00998656,0.0177095,13.85964247,100.51908056,-23.480072021484375
1644645253923,193.125,-2.3125,-84.28125,13.25625,-75.375,19.66875,-0.98170376,1.1757556,-0.2816689,-11.086949,-0.047285482,0.7553706,-0.113979936,-0.025965055,0.07523208,13.85964247,100.51908056,-23.480072021484375
1644645254029,192.98438,-2.375,-84.03125,12.0375,-75.637505,20.025002,-1.817213,0.7534188,1.2266648,-11.307216,0.20649989,0.6596026,-0.039413624,-0.12609696,0.06777545,13.85964247,100.51908056,-23.480072021484375
1644645254129,193.15625,-2.28125,-84.140625,12.525001,-76.3125,19.050001,-0.8018122,1.1682168,1.1411858,-11.402985,1.3180081,-0.3800795,0.008521864,-0.067509145,-0.0014646954,13.85963408,100.51912008,-23.449676513671875
1644645254229,193.03125,-2.28125,-84.125,13.35,-76.14375,19.7625,-0.7414932,0.7338478,-0.32633945,-10.857106,1.2126632,0.7074866,-0.024500359,0.007057169,-0.015312725,13.85963408,100.51912008,-23.449676513671875
1644645254333,193.04688,-2.296875,-84.078125,12.731251,-75.356255,18.206251,-0.3589821,1.004141,-0.12808618,-10.00896,1.2270284,-0.17417817,-0.046870254,-0.03129122,0.016644266,13.85963408,100.51912008,-23.449676513671875
1644645254439,193.10938,-2.296875,-84.21875,12.075001,-75.3375,18.431252,-1.3930216,0.1775063,0.5700536,-10.991181,-0.15801731,1.0139444,-0.03515269,-0.051530648,0.03901416,13.85963408,100.51912008,-23.449676513671875
1644645254537,193.32812,-1.96875,-85.71875,11.625,-75.975006,18.09375,0.124941826,0.6714581,-0.49276426,-9.836577,0.8098387,-0.83976626,-0.017043728,-0.050465416,-3.9946238E-4,13.85963408,100.51912008,-23.449676513671875
1644645254640,194.32812,-0.96875,-86.296875,12.6,-75.7125,18.7875,-1.1464529,1.0586091,-1.5135444,-11.005547,1.2844892,0.40102878,-0.076696776,6.657706E-4,0.018774733,13.85963408,100.51912008,-23.449676513671875
1644645254744,194.01562,-1.1875,-87.296875,11.2875,-75.1125,19.087502,-1.129858,0.40340704,-0.5399577,-10.435727,0.9487024,0.3196259,-0.002130466,-0.013182258,0.011318101,13.85963408,100.51912008,-23.449676513671875
1644645254852,194.28125,-0.859375,-88.953125,11.681251,-75.356255,19.181252,-1.137146,0.5783687,0.39005956,-10.766127,0.8242039,-0.26036942,-0.018108962,-0.05685681,0.04860126,13.85963408,100.51912008,-23.449676513671875
1644645254955,193.71875,-1.375,-88.625,11.231251,-75.693756,17.550001,-0.30934143,0.783121,-0.5668251,-10.31063,0.5033809,0.25737667,-0.08202294,0.04327509,0.050731722,13.85963408,100.51912008,-23.449676513671875
1644645255060,194.20312,-0.8125,-88.921875,10.125,-75.8625,17.23125,-0.77835655,1.1075339,-0.10859075,-10.334572,0.95349085,-0.6386533,-0.009587097,-0.07283531,0.028361829,13.85963408,100.51912008,-23.449676513671875
1644645255160,194.89062,-0.125,-89.15625,9.28125,-76.162506,17.56875,-0.9906645,0.4589312,-0.5357834,-10.286688,0.8050503,-0.22685061,0.004260932,-0.057922047,0.012383334,13.85963079,100.51915324,-22.775054931640625
1644645255263,193.23438,-178.375,-88.1875,10.012501,-76.200005,17.41875,-0.62350845,0.57058513,-0.24506448,-10.272323,0.76195467,-1.2090719,0.0074566314,-0.08135717,0.0177095,13.85963079,100.51915324,-22.775054931640625
1644645255366,193.07812,-178.21875,-87.875,10.837501,-76.162506,17.7,0.084843636,0.8563986,-1.4669721,-10.109517,-0.09995792,-0.06404489,-0.08202294,0.06884068,0.04220986,13.85963079,100.51915324,-22.775054931640625
1644645255468,192.25,-177.40625,-87.296875,10.950001,-77.100006,18.09375,-0.037596703,-0.34790528,0.48626336,-9.443929,-0.5602432,0.03172317,0.004260932,-0.04833495,0.04966649,13.85963079,100.51915324,-22.775054931640625
1644645255569,193.28125,-178.4375,-88.140625,10.556251,-76.5,17.400002,-0.05458641,0.17161083,0.16107532,-9.688137,0.45549688,0.29568392,0.004260932,-0.06963961,6.657706E-4,13.85963079,100.51915324,-22.775054931640625
1644645255671,193.75,-178.85938,-88.21875,11.0625,-76.725006,17.456251,-0.09132099,0.2305943,-0.6014043,-9.367314,-0.008978256,-0.6721721,-0.020239428,-0.061117746,0.019839965,13.85963079,100.51915324,-22.775054931640625
1644645255777,194.57812,-179.65625,-89.140625,11.118751,-76.2375,16.725,0.28207302,-0.099236205,-0.7262003,-9.53012,-0.35913026,0.0077811554,-0.050065953,0.05605789,-0.0014646954,13.85963079,100.51915324,-22.775054931640625
1644645255886,193.17188,-178.23438,-87.96875,10.462501,-75.84375,16.706251,-0.91638374,-1.0986902,1.269014,-10.1621895,0.048482586,0.91817635,0.07776201,-0.05366111,-0.027030287,13.85963079,100.51915324,-22.775054931640625
1644645255991,193.14062,-178.1875,-87.890625,11.08125,-75.450005,17.00625,0.75024605,0.8117515,-1.1360196,-8.863934,1.0163386,-1.9129672,-0.025565593,-0.021704122,0.015579033,13.85963079,100.51915324,-22.775054931640625
1644645256096,193.73438,-178.6875,-88.234375,11.19375,-76.481255,17.7,0.2618742,0.010811612,-0.9763726,-8.878299,0.5081693,-0.23642741,0.019174194,0.0145138,0.008122402,13.85963079,100.51915324,-22.775054931640625
1644645256194,193.96875,-178.9375,-88.375,10.462501,-75.15,17.85,-0.08855629,0.16825113,-0.21785107,-9.740809,0.05327099,-0.6961141,-0.008521864,-0.022769356,0.004926703,13.85962495,100.51918674,-22.746124267578125
1644645256299,194.0625,-179.0,-86.90625,11.25,-75.84375,19.40625,0.4968586,-0.27497476,-0.6046028,-9.544485,-0.061650693,-0.9211691,0.015978495,0.012383334,-0.008921326,13.85962495,100.51918674,-22.746124267578125
1644645256401,194.26562,-179.17188,-87.6875,10.387501,-76.068756,18.88125,0.44670296,0.009750009,-0.48516488,-9.405622,0.2160767,-0.207697,0.015978495,0.041144624,-0.022769356,13.85962495,100.51918674,-22.746124267578125
1644645256503,192.54688,-177.48438,-86.6875,10.2375,-75.375,19.275002,0.20705605,-0.32219553,0.61939514,-10.718243,-0.5793968,-0.7727286,0.015978495,0.02197043,-0.016377958,13.85962495,100.51918674,-22.746124267578125
1644645256611,193.89062,-178.75,-86.90625,10.06875,-76.89375,18.862501,-1.051652,-0.13943392,-0.22251423,-10.07121,0.9391256,-1.1180922,0.07243585,-0.04940018,-0.0025299285,13.85962495,100.51918674,-22.746124267578125
1644645256712,193.57812,-178.46875,-85.8125,10.650001,-77.3625,18.84375,1.239975,-0.5951102,-1.064861,-8.883087,1.0881647,-2.2056582,0.09161004,0.020905199,-0.03448692,13.85962495,100.51918674,-22.746124267578125
1644645256823,194.65625,-179.48438,-86.234375,10.78125,-77.606255,19.0125,0.48651886,0.14517488,0.36069703,-10.804434,0.26396075,-0.87807345,0.014913263,0.047536023,-0.017443191,13.85962495,100.51918674,-22.746124267578125
1644645256927,193.76562,-178.71875,-85.53125,10.481251,-78.075005,18.16875,0.5082407,-0.45408717,-0.317641,-9.989806,0.6183026,-0.14544775,0.052196417,0.029427063,-0.04087832,13.85962495,100.51918674,-22.746124267578125
1644645257026,193.70312,-178.625,-85.515625,10.1625,-77.606255,18.018751,0.54754734,0.51065344,-0.48411077,-10.147824,0.6422446,-1.3144168,-0.026630826,0.051796954,-0.03448692,13.85962495,100.51918674,-22.746124267578125
1644645257127,193.10938,-178.15625,-85.765625,10.21875,-78.24375,18.0,0.26953888,0.21980192,0.45483392,-10.234015,0.18734628,-0.57161564,0.015978495,0.030492295,-0.0067908606,13.8596192,100.51921552,-22.85101318359375
1644645257231,194.0625,-179.14062,-85.875,10.03125,-77.287506,17.681252,-0.070373535,-0.54714245,-0.34709102,-10.013748,0.22565351,-1.2378023,0.06817491,-0.047269717,-0.0025299285,13.8596192,100.51921552,-22.85101318359375
1644645257333,192.39062,-177.60938,-85.234375,10.1625,-78.3,18.018751,0.6079788,0.51770854,-0.19075447,-9.692925,0.7906851,-0.801459,-0.0074566314,0.02197043,0.010252868,13.8596192,100.51921552,-22.85101318359375
1644645257436,192.95312,-178.20312,-85.375,10.012501,-78.7125,17.94375,-0.3785305,0.33491278,0.035893977,-9.755175,0.3549404,-0.57640404,-0.001065233,-0.06857438,0.03901416,13.8596192,100.51921552,-22.85101318359375
1644645257539,193.21875,-178.45312,-85.671875,10.837501,-78.28125,17.325,-0.018748283,0.68322647,-0.97929955,-9.803059,0.75716627,-0.45190558,-0.040478855,-0.0014646954,0.023035664,13.8596192,100.51921552,-22.85101318359375
1644645257647,193.28125,-178.53125,-86.484375,10.368751,-78.28125,18.50625,0.17236233,0.7033294,1.4312758,-10.329783,0.20649989,-0.3226187,0.0,-0.05579158,0.009187635,13.8596192,100.51921552,-22.85101318359375
1644645257760,193.25,-178.4375,-86.4375,10.33125,-78.881256,18.73125,0.25944328,0.44271633,-0.3012832,-9.946711,0.12988544,-0.7104794,-0.005326165,0.016644266,0.0145138,13.8596192,100.51921552,-22.85101318359375
1644645257860,193.26562,-178.375,-86.4375,9.431251,-79.387505,19.21875,0.13974094,0.5182611,0.75497794,-10.028113,-0.51235914,-0.6434417,-0.018108962,-0.023834588,0.04860126,13.8596192,100.51921552,-22.85101318359375
1644645257962,192.17188,-177.14062,-86.40625,9.806251,-77.887505,18.300001,-0.92844105,1.5264312,0.329038,-10.373477,1.6101006,-1.2617443,0.053261653,-0.06324821,0.03581846,13.8596192,100.51921552,-22.85101318359375
1644645258064,192.125,-176.89062,-86.4375,9.150001,-79.21875,18.825,-0.27192116,1.3395755,-1.393969,-10.104729,1.6531962,-1.3623008,0.001065233,0.0059919357,0.0145138,13.8596192,100.51921552,-22.85101318359375
1644645258168,192.25,-176.65625,-86.609375,10.8,-78.09375,18.91875,0.010389328,-0.08757466,1.0569401,-10.430939,-0.4261679,0.48243165,0.026630826,-0.0067908606,0.02516613,13.859617,100.51924147,-22.616729736328125
1644645258266,192.21875,-176.28125,-86.265625,10.125,-78.600006,19.25625,-0.8003483,0.41738424,2.0470665,-10.847529,0.048482586,0.21428105,0.06604445,-0.06537867,0.032622762,13.859617,100.51924147,-22.616729736328125
1644645258371,191.65625,-175.3125,-85.140625,10.06875,-79.5,19.650002,0.27402115,0.23707524,0.8309958,-9.333796,0.8050503,-1.0127473,0.17576344,-0.074965775,0.011318101,13.859617,100.51924147,-22.616729736328125
1644645258474,193.9375,-176.95312,-86.90625,9.356251,-78.3375,18.206251,0.107040405,1.1028528,-0.71732503,-10.0664215,1.4281414,-0.27952304,0.08202294,0.026231363,0.02197043,13.859617,100.51924147,-22.616729736328125
1644645258578,193.78125,-176.4375,-86.4375,9.975,-78.58125,18.825,-0.2590332,1.8139584,-0.5285767,-10.33936,1.6005238,-1.1180922,0.08521864,-0.0057256273,0.030492295,13.859617,100.51924147,-22.616729736328125
1644645258681,193.78125,-175.85938,-85.609375,10.5,-78.43125,20.23125,-0.33924294,0.69979775,1.1266502,-9.965864,1.270124,1.1959038,0.17789392,-0.0046603945,0.0059919357,13.859617,100.51924147,-22.616729736328125
1644645258785,193.5,-175.0625,-85.015625,11.325001,-78.7125,21.4125,-0.073251724,0.9812533,0.80840796,-9.587581,1.3611037,0.59735334,0.19813335,-0.012117025,0.032622762,13.859617,100.51924147,-22.616729736328125
1644645258895,192.92188,-173.65625,-83.65625,10.856251,-78.412506,21.431252,0.23590374,2.25638,-0.3106478,-9.122507,2.309806,-1.0893618,0.19600287,-0.028095521,0.037948925,13.859617,100.51924147,-22.616729736328125
1644645259004,193.32812,-7.0,-82.96875,10.05,-76.481255,22.556252,-0.0179739,0.734375,1.0534879,-9.5253315,1.2892777,1.0570401,0.25246024,-0.024899822,0.013448567,13.859617,100.51924147,-22.616729736328125
1644645259103,193.10938,-8.109375,-81.859375,11.26875,-77.49375,24.243752,0.56222534,0.28554165,0.74821776,-8.136096,0.74758947,-0.14544775,0.26630825,-0.051530648,0.03155753,13.859617,100.51924147,-22.616729736328125
1644645259202,192.45312,-169.8125,-79.8125,9.825001,-77.662506,25.1625,-1.3248682,1.4329358,-0.55333567,-9.539697,1.6101006,1.4646529,0.22795987,-0.03129122,0.05605789,13.85960864,100.51927774,-23.061492919921875
1644645259312,193.78125,-169.9375,-79.9375,10.81875,-77.793755,27.187502,1.2774057,0.66028935,1.4622376,-8.533533,1.2557588,-0.28909984,0.3813534,-0.054726347,-0.0014646954,13.85960864,100.51927774,-23.061492919921875
1644645259419,196.21875,-9.4375,-80.546875,9.4125,-77.4375,28.125002,0.99424267,1.1807811,0.21631154,-8.337209,1.839944,0.12749124,0.34087455,0.036883693,0.0027962367,13.85960864,100.51927774,-23.061492919921875
1644645259517,197.40625,-10.265625,-79.703125,9.975,-76.5,29.156252,1.3705797,0.85023725,-0.28975043,-8.523956,1.4281414,0.5494693,0.28867814,0.06031882,0.030492295,13.85960864,100.51927774,-23.061492919921875
1644645259622,198.15625,-10.953125,-78.984375,9.65625,-76.818756,32.1375,-0.19354343,-0.4247914,1.5322202,-10.200497,0.40761283,1.3257892,0.36537492,0.010252868,0.008122402,13.85960864,100.51927774,-23.061492919921875
1644645259727,201.23438,-10.0625,-79.921875,10.425,-75.825005,33.825,-0.847826,-0.31977147,2.115657,-10.032902,1.5861586,0.065242,0.4740287,-0.13994499,-0.00998656,13.85960864,100.51927774,-23.061492919921875
1644645259825,203.375,-9.5625,-80.359375,9.712501,-75.637505,34.125,0.0068893433,0.7728595,0.7568253,-8.99322,1.7489643,-0.23642741,0.3451355,-0.07177007,0.036883693,13.85960864,100.51927774,-23.061492919921875
1644645259927,205.5625,-9.65625,-80.21875,8.4375,-74.381256,35.081253,1.3432722,0.007855535,0.28926262,-8.437765,1.7345991,-0.8972271,0.41437563,-0.013182258,-0.118640326,13.85960864,100.51927774,-23.061492919921875
1644645260029,207.09375,-9.78125,-80.125,8.71875,-72.881256,36.487503,1.4894123,2.6772566,-1.9141518,-8.121731,2.6258407,-0.64823014,0.2418079,0.1561898,-0.107988,13.85960864,100.51927774,-23.061492919921875
1644645260132,209.375,-9.96875,-79.96875,8.962501,-72.918755,37.3875,-0.62088203,-2.8927932,1.9336789,-10.579379,-1.9015948,2.566584,0.32702655,0.029427063,-0.062182978,13.8595935,100.51931541,-22.9656982421875
1644645260237,211.96875,-9.703125,-80.265625,9.993751,-71.5875,39.300003,0.50210667,-2.010042,0.39265352,-9.5971575,-0.8331822,1.0426749,0.35259214,0.041144624,-0.025965055,13.8595935,100.51931541,-22.9656982421875
1644645260334,214.07812,-9.34375,-80.609375,10.368751,-70.59375,39.7125,-0.83526325,-0.43138963,0.84757173,-9.702502,-1.091756,1.6944963,0.2545907,-0.039813083,0.08694965,13.8595935,100.51931541,-22.9656982421875
1644645260440,216.9375,-8.734375,-81.25,9.262501,-68.512505,40.3125,1.2088003,-0.5781342,0.84498954,-8.010999,0.66139823,-0.6194997,0.37922296,-0.07177007,0.033687994,13.8595935,100.51931541,-22.9656982421875
1644645260544,218.48438,-8.703125,-81.296875,8.75625,-67.2375,41.2125,0.18445778,-0.41988018,1.3126582,-9.362526,0.4938041,1.5891514,0.26524302,-0.011051793,0.018774733,13.8595935,100.51931541,-22.9656982421875
1644645260647,220.26562,-9.015625,-80.984375,8.793751,-67.575005,41.943752,1.3580284,0.10837144,-0.75749457,-7.843405,1.3371617,-1.8842367,0.26630825,-0.032356452,0.004926703,13.8595935,100.51931541,-22.9656982421875
1644645260749,221.5,-170.8125,-80.8125,9.525001,-67.89375,42.375,0.75386524,0.5749069,-0.34500676,-9.64983,1.567005,-0.9355343,0.22369893,0.09227581,-0.04620448,13.8595935,100.51931541,-22.9656982421875
1644645260854,223.1875,-170.64062,-80.625,9.618751,-66.20625,42.975002,1.6834564,-0.27602115,-0.51772404,-9.582792,-0.32561144,-0.53330845,0.13848029,0.11997187,-0.06005251,13.8595935,100.51931541,-22.9656982421875
1644645260956,224.70312,-170.51562,-80.453125,10.106251,-65.756256,42.80625,0.23305511,-1.9143606,1.3706865,-10.195708,-0.9959879,-0.24600422,0.26843873,0.012383334,-0.027030287,13.8595935,100.51931541,-22.9656982421875
1644645261057,227.17188,-171.90625,-81.90625,10.6125,-65.943756,43.78125,0.09674454,-1.0268757,0.30547774,-8.892664,0.8912416,0.6500258,0.23648173,-0.047269717,-0.015312725,13.8595935,100.51931541,-22.9656982421875
1644645261161,229.5,-172.89062,-82.890625,10.70625,-65.71875,44.49375,0.8626518,1.0305358,-0.96313477,-9.463082,1.8686744,-1.3431472,0.13634983,0.034753226,-0.067509145,13.85956627,100.51934842,-22.718536376953125
1644645261264,230.39062,-172.89062,-82.890625,10.78125,-64.65,45.318752,1.2849102,-0.7698059,-1.1674666,-9.021951,0.52732295,0.23822308,0.17363298,0.20519051,-0.096270435,13.85956627,100.51934842,-22.718536376953125
1644645261365,231.46875,-172.76562,-82.765625,11.118751,-65.662506,45.825,0.9901018,-2.4234996,0.3464954,-9.271546,-1.9303252,0.6500258,0.14913262,0.06884068,-0.04087832,13.85956627,100.51934842,-22.718536376953125
1644645261468,232.09375,-172.71875,-82.703125,10.78125,-64.65,46.0875,0.85318565,-2.3112123,0.13800526,-8.811261,-1.3461399,-0.15981296,0.16617635,0.013448567,0.0059919357,13.85956627,100.51934842,-22.718536376953125
1644645261572,233.26562,-172.96875,-82.953125,10.481251,-64.856255,46.29375,0.9239702,-0.77032566,-0.051246554,-9.41041,-0.22026655,-0.17896658,0.08628388,0.015579033,0.037948925,13.85956627,100.51934842,-22.718536376953125
1644645261676,234.3125,-173.23438,-83.203125,10.387501,-64.5,47.49375,1.0776997,-0.26643917,0.34350252,-8.5383215,0.7188591,-0.12629414,0.1193061,-0.028095521,0.009187635,13.85956627,100.51934842,-22.718536376953125
1644645261790,234.64062,-173.125,-83.09375,10.6875,-64.03125,48.54375,0.3157425,-0.36724108,-0.100748226,-9.697714,0.10115502,-0.06404489,0.049000718,0.041144624,-0.02063889,13.85956627,100.51934842,-22.718536376953125
1644645261895,234.9375,-172.76562,-82.765625,10.5,-63.487503,48.80625,0.6112509,-0.5582063,0.9882279,-9.827001,0.024540568,-0.9068039,0.07350108,-0.0057256273,-0.030225987,13.85956627,100.51934842,-22.718536376953125
1644645261995,235.17188,-172.45312,-82.453125,9.13125,-63.093754,48.375004,0.112101555,-0.9913896,-0.4797227,-9.855731,-0.13347675,-0.55246204,0.06604445,0.026231363,-0.027030287,13.85956627,100.51934842,-22.718536376953125
1644645262092,235.53125,-172.45312,-82.453125,9.337501,-63.675003,48.16875,0.5689144,-0.6770123,-0.387029,-9.036316,-0.37828386,-0.7200562,0.019174194,-0.019573657,-3.9946238E-4,13.85956627,100.51934842,-22.718536376953125
1644645262194,238.21875,-174.6875,-84.6875,9.20625,-63.15,48.112503,0.85243034,-0.2086007,-0.98307514,-8.121731,0.1921347,0.36272156,0.002130466,0.008122402,-0.039813083,13.85954195,100.51936787,-22.996246337890625
1644645262298,238.53125,-174.79688,-84.796875,8.962501,-62.718754,48.750004,0.6321249,-1.1057087,0.18110351,-9.4774475,-1.2210429,-0.6721721,0.028761292,0.011318101,-0.021704122,13.85954195,100.51936787,-22.996246337890625
1644645262397,240.85938,-176.8125,-86.765625,8.90625,-62.812504,48.843754,0.5623579,-1.7720064,0.3498109,-9.961076,-1.4514848,-0.092775315,0.054326884,0.07416685,-0.0057256273,13.85954195,100.51936787,-22.996246337890625
1644645262502,242.40625,-178.125,-87.59375,8.700001,-62.250004,48.093754,-0.013510704,-1.509342,0.7946007,-9.458294,-1.2982559,-0.54288524,0.018108962,-0.05898728,0.03155753,13.85954195,100.51936787,-22.996246337890625
1644645262605,243.71875,-179.3125,-87.1875,8.8125,-62.775,48.61875,0.7233305,-1.0601208,-0.8105765,-8.99322,-0.04249708,-1.9800048,0.025565593,0.015579033,-0.011051793,13.85954195,100.51936787,-22.996246337890625
1644645262711,244.39062,-179.75,-86.5625,8.043751,-62.98125,48.318752,0.41951752,-0.17832261,-0.9520981,-10.147824,0.374094,-1.2761095,-0.023435127,0.069905914,-0.011051793,13.85954195,100.51936787,-22.996246337890625
1644645262812,244.20312,-179.64062,-86.5,8.887501,-63.9,48.787502,0.05803871,-0.51325613,-1.2692587,-9.855731,-0.30166942,-0.9935937,-0.056457352,0.054992653,0.010252868,13.85954195,100.51936787,-22.996246337890625
1644645262915,245.35938,179.26562,-85.109375,9.1125,-63.937504,48.7125,0.5193329,-0.901495,0.1121369,-9.31943,-0.46447513,-0.011372458,-0.057522584,0.013448567,-0.021704122,13.85954195,100.51936787,-22.996246337890625
1644645263028,245.15625,179.20312,-85.1875,8.0625,-62.68125,48.206253,0.9983301,-0.0953916,-2.4881523,-7.8625584,1.021127,-2.3301568,-0.053261653,0.010252868,-0.03448692,13.85954195,100.51936787,-22.996246337890625
1644645263135,244.23438,179.82812,-84.65625,8.700001,-63.506252,47.5125,0.99001884,-1.3589795,-1.6655991,-9.1272955,-1.5855601,-1.0271125,-0.083088174,0.12529804,0.0038614697,13.85951739,100.51938152,-22.730377197265625
1644645263237,243.71875,-179.98438,-84.25,9.243751,-64.2375,47.9625,0.47076035,-1.300517,0.73224455,-10.052056,-0.6751649,-0.9840169,0.020239428,0.030492295,-0.014247492,13.85951739,100.51938152,-22.730377197265625
1644645263336,243.42188,179.90625,-84.96875,9.0375,-64.537506,47.30625,0.45636177,-1.8451774,0.30135518,-9.281123,-1.2449849,-0.57161564,-0.06497922,-0.007856093,-0.028095521,13.85951739,100.51938152,-22.730377197265625
1644645263445,245.39062,177.85938,-83.640625,9.4125,-64.96875,47.737503,1.2991867,-1.4467657,-1.094021,-8.729858,-1.2838906,-2.1051018,-0.14700216,0.062449288,-0.0014646954,13.85951739,100.51938152,-22.730377197265625
1644645263542,244.85938,177.98438,-82.765625,9.20625,-64.912506,46.818752,0.9957504,-1.65905,-0.3582005,-9.208698,-1.0582372,-2.5121162,-0.14061075,0.029427063,-0.030225987,13.85951739,100.51938152,-22.730377197265625
1644645263647,244.39062,177.92188,-82.46875,9.825001,-64.425,46.36875,0.2300806,-1.5323293,-0.85872096,-9.731233,-1.3796587,-0.75357497,-0.25246024,0.04220986,-0.013182258,13.85951739,100.51938152,-22.730377197265625
1644645263750,244.34375,177.23438,-82.46875,10.63125,-66.543755,46.96875,0.6262388,-1.5537832,0.39549914,-9.578004,-1.7340006,-0.84934306,-0.23435126,0.033687994,-0.0035951615,13.85951739,100.51938152,-22.730377197265625
1644645263856,243.5,176.96875,-82.875,10.96875,-68.55,46.350002,0.27455902,-1.2091882,-0.4571932,-9.587581,-1.0773908,-1.7405846,-0.20239428,0.026231363,-0.00998656,13.85951739,100.51938152,-22.730377197265625
1644645263958,244.3125,175.375,-82.359375,11.34375,-68.925,46.8375,-0.05087471,-0.7550049,-0.6178946,-9.898827,-0.6560113,-1.6017209,-0.25991687,0.05712312,0.040079392,13.85951739,100.51938152,-22.730377197265625
1644645264061,243.3125,174.95312,-82.71875,10.5375,-70.03125,44.925003,1.2423334,-1.0955567,-0.4059686,-8.998009,-1.1252748,-1.448492,-0.25885162,0.04220986,-0.0067908606,13.85951739,100.51938152,-22.730377197265625
1644645264169,242.35938,174.78125,-82.625,10.668751,-70.40625,44.4375,-0.23932552,-1.2558153,0.23353887,-10.421362,-0.24899697,0.50637364,-0.17469822,0.16151595,-0.06963961,13.8594927,100.51940004,-21.881256103515625
1644645264270,240.82812,174.71875,-82.9375,11.0625,-73.2375,45.075,2.1657834,-2.7842155,0.26123145,-9.443929,-1.6286557,-1.8555063,-0.13634983,0.11038477,-0.103727065,13.8594927,100.51940004,-21.881256103515625
1644645264373,238.48438,175.29688,-82.8125,12.20625,-73.818756,43.725002,0.97469807,-2.1310825,-1.3078012,-8.782531,-1.3557167,-0.40880993,-0.25352547,0.11145,-0.057922047,13.8594927,100.51940004,-21.881256103515625
1644645264473,236.89062,175.625,-83.21875,11.512501,-73.40625,42.881252,1.2774544,-1.5813478,0.2247709,-8.87351,-1.6238673,-0.46148238,-0.29293907,0.033687994,-0.027030287,13.8594927,100.51940004,-21.881256103515625
1644645264578,234.98438,175.70312,-83.125,10.6875,-75.3375,41.325,0.47212696,-2.1739492,-0.10337788,-9.208698,-2.2511482,-0.8924387,-0.2897434,-0.030225987,-0.013182258,13.8594927,100.51940004,-21.881256103515625
1644645264680,233.4375,175.85938,-83.1875,10.668751,-77.043755,40.800003,0.4268837,-1.5868703,-0.49159473,-8.552687,-1.2449849,-0.7966706,-0.32489607,-0.018508423,-3.9946238E-4,13.8594927,100.51940004,-21.881256103515625
1644645264783,231.35938,175.96875,-83.125,11.512501,-77.7375,39.9375,0.6433945,-0.35763445,-0.17174596,-8.978855,-1.3174095,-2.6940753,-0.36537492,-0.04194355,0.041144624,13.8594927,100.51940004,-21.881256103515625
1644645264894,229.3125,175.9375,-83.015625,11.85,-78.787506,38.4375,0.47713757,-2.3477478,0.16179639,-9.592369,-2.0787656,-0.9451111,-0.2481993,0.041144624,-0.05259588,13.8594927,100.51940004,-21.881256103515625
1644645264996,229.0,174.875,-82.53125,12.31875,-78.61875,36.9375,1.6315556,-2.2058954,0.5897178,-8.820838,-2.2080526,-1.3192052,-0.27163443,0.03581846,-0.036617383,13.8594927,100.51940004,-21.881256103515625
1644645265099,226.73438,175.0625,-82.53125,12.243751,-80.418755,36.1875,1.3473206,-1.9843569,-0.4250198,-8.015787,-1.5328877,-0.480636,-0.29826525,0.02516613,-0.044074018,13.8594927,100.51940004,-21.881256103515625
1644645265199,224.98438,175.20312,-82.515625,12.0375,-80.15625,34.95,0.6655626,-2.1207092,0.4064331,-8.567052,-2.457648,-1.151611,-0.24287313,-0.04833495,-0.012117025,13.85947894,100.51942321,-22.75836181640625
1644645265298,224.96875,173.35938,-81.171875,12.39375,-81.637505,34.7625,0.1693592,-0.9290901,-0.2482422,-8.485649,-0.8619126,-1.0510546,-0.2545907,-0.08774857,-0.0057256273,13.85947894,100.51942321,-22.75836181640625
1644645265404,223.35938,173.375,-81.15625,14.062501,-82.74375,33.84375,0.74438953,-0.56294155,-1.0162222,-8.18398,-0.15801731,-2.1003134,-0.219438,0.015579033,0.012383334,13.85947894,100.51942321,-22.75836181640625
1644645265497,220.03125,174.57812,-82.03125,12.993751,-83.850006,33.768753,0.08182716,0.08616387,-1.9615068,-8.777742,-0.6847417,-1.1659763,-0.33022225,-0.0025299285,0.03155753,13.85947894,100.51942321,-22.75836181640625
1644645265604,217.90625,175.23438,-81.984375,13.762501,-85.293755,33.600002,0.41345215,0.3430338,-0.93484676,-8.806473,-0.91458505,-0.41838676,-0.29613477,0.016644266,0.030492295,13.85947894,100.51942321,-22.75836181640625
1644645265706,215.95312,175.45312,-82.125,14.55,-86.175,32.5875,-0.6948242,-1.1070724,1.2603811,-9.419987,-1.2401965,1.1671734,-0.14274122,-0.03768262,0.023035664,13.85947894,100.51942321,-22.75836181640625
1644645265810,214.73438,175.5625,-82.09375,14.812501,-87.24375,32.456253,1.4045429,-1.3866851,1.0317245,-9.20391,-1.7196354,-1.8411411,-0.13528459,-0.07709624,-0.047269717,13.85947894,100.51942321,-22.75836181640625
1644645265921,211.07812,177.5,-82.90625,15.01875,-88.74375,32.081253,2.0930014,-1.150569,-1.2308564,-9.136872,-1.1109096,-1.1947067,-0.14913262,0.114645705,-0.06431344,13.85947894,100.51942321,-22.75836181640625
1644645266025,209.23438,178.15625,-83.515625,15.13125,-88.78125,30.187502,1.1421833,-1.1143517,-0.4274807,-8.648455,-0.79966336,-0.6147113,-0.10865377,0.04647079,-0.05579158,13.85947894,100.51942321,-22.75836181640625
1644645266126,208.17188,178.29688,-83.546875,15.150001,-90.450005,30.337502,0.2031231,-2.1228933,0.3740369,-9.688137,-1.5664065,0.16579847,-0.083088174,0.033687994,-0.05685681,13.85947052,100.51945569,-22.901153564453125
1644645266226,207.0,178.45312,-83.390625,14.75625,-91.93125,28.218752,1.2794504,-2.0120049,0.44790906,-8.30369,-1.714847,-0.41838676,-0.07456631,-0.015312725,-0.03874785,13.85947052,100.51945569,-22.901153564453125
1644645266325,205.6875,179.03125,-83.3125,15.675,-90.881256,28.406252,0.7507725,-0.7976778,-0.12032634,-8.260594,-1.0486604,-1.9512744,-0.10226237,-0.04194355,0.016644266,13.85947052,100.51945569,-22.901153564453125
1644645266438,206.03125,177.8125,-83.5625,15.975,-92.15625,27.581251,1.7574196,-0.30391395,-0.3435176,-8.99322,-0.40222588,-1.0845734,-0.10865377,0.08162348,-0.025965055,13.85947052,100.51945569,-22.901153564453125
1644645266518,205.89062,177.4375,-83.671875,15.525001,-92.100006,26.775002,-0.07287216,0.8759957,-1.3228326,-9.021951,0.997185,-1.7597382,-0.13421936,-0.04620448,-0.0035951615,13.85947052,100.51945569,-22.901153564453125
1644645266632,203.54688,178.75,-84.0625,16.10625,-93.525,26.04375,-0.055386543,-0.04614471,-0.43815547,-9.817424,-1.2785037,-0.7392098,-0.15978496,-0.043008782,0.03901416,13.85947052,100.51945569,-22.901153564453125
1644645266738,202.17188,179.34375,-83.953125,16.66875,-93.65625,25.0125,-1.3962259,-0.56682134,0.65294844,-9.578004,-0.8714894,-0.42796355,-0.017043728,-0.14740162,-0.0014646954,13.85947052,100.51945569,-22.901153564453125
1644645266843,200.9375,-179.96875,-83.640625,16.85625,-94.65,22.837502,0.281909,1.3632133,-1.0299544,-9.740809,1.2892777,-2.3588872,-0.08734911,0.032622762,0.02197043,13.85947052,100.51945569,-22.901153564453125
1644645266948,200.21875,-179.82812,-83.609375,18.393751,-95.606255,21.69375,-0.95903873,-0.82617766,0.15188277,-9.740809,-0.5506664,1.5891514,-0.07776201,0.02516613,0.028361829,13.85947052,100.51945569,-22.901153564453125
1644645267054,199.35938,-179.375,-83.734375,18.525002,-94.068756,20.550001,1.0903206,-0.58795047,0.64191103,-9.2907,-0.46926352,-0.9888053,0.050065953,0.012383334,-0.06324821,13.85947052,100.51945569,-22.901153564453125
1644645267153,198.3125,-178.64062,-84.046875,19.931252,-94.293755,17.643751,0.5182133,0.114176124,-0.26665628,-9.941922,-0.17717093,-3.2549171,-0.006391398,0.03155753,-0.012117025,13.85946354,100.51948671,-23.6055908203125
1644645267254,199.0625,-179.60938,-84.703125,19.931252,-93.24375,16.1625,-0.99704933,-0.76185495,-0.41680545,-9.716867,0.38845924,0.7745243,0.0,-0.016377958,-0.05898728,13.85946354,100.51948671,-23.6055908203125
1644645267357,198.125,-178.98438,-83.71875,20.737501,-92.3625,15.187501,-0.5515919,-0.25931075,0.54394174,-10.541072,-0.22026655,-0.9020155,-0.06284875,-0.03874785,-0.016377958,13.85946354,100.51948671,-23.6055908203125
1644645267460,199.20312,179.75,-83.734375,20.1,-91.387505,15.262501,-0.7034788,0.32855338,0.09849453,-9.937134,0.3453636,-0.15502456,-0.083088174,0.0177095,0.041144624,13.85946354,100.51948671,-23.6055908203125
1644645267564,199.23438,179.34375,-83.5625,19.650002,-89.662506,15.262501,0.8441429,0.9025867,0.6468541,-9.927557,-0.46926352,-1.1851299,-0.13102366,-0.032356452,0.007057169,13.85946354,100.51948671,-23.6055908203125
1644645267670,198.71875,179.59375,-84.875,20.75625,-88.40625,14.75625,0.31338406,0.3963548,1.0248005,-9.697714,0.3645172,-0.9115923,-0.060718283,-0.12183603,-0.018508423,13.85946354,100.51948671,-23.6055908203125
1644645267771,198.21875,179.6875,-84.96875,21.35625,-89.175,14.85,-0.47815895,1.2053618,-1.2969887,-8.648455,1.6292542,-0.6242881,-0.09480574,-0.06431344,0.04647079,13.85946354,100.51948671,-23.6055908203125
1644645267871,197.89062,179.75,-84.984375,19.96875,-87.168755,14.418751,-1.3500443,1.2292539,0.6321739,-10.99597,0.74758947,-0.39444473,-0.054326884,6.657706E-4,0.05392742,13.85946354,100.51948671,-23.6055908203125
1644645267978,197.46875,179.875,-86.921875,20.38125,-86.4375,14.306251,-1.25601,0.019671269,1.784265,-9.731233,0.27353755,1.0666169,-0.027696058,-0.16018441,0.050731722,13.85946354,100.51948671,-23.6055908203125
1644645268079,195.67188,-178.59375,-87.328125,20.7,-86.3625,15.337501,-0.6744499,1.2473733,-0.1831907,-10.028113,1.4999673,-1.5394717,-0.033022225,-0.09413997,-0.0025299285,13.85946354,100.51948671,-23.6055908203125
1644645268186,195.45312,-178.51562,-87.359375,21.6,-86.30625,15.1125,-0.39336014,0.8241829,0.29131716,-10.253169,0.27832595,-0.52373165,-0.07243585,-0.0046603945,0.029427063,13.85944348,100.51954589,-24.32244873046875
1644645268287,195.73438,-178.84375,-88.546875,21.54375,-84.99375,15.675,-0.9586773,0.39395612,1.1626234,-11.187506,0.39803603,-0.6003461,0.027696058,-0.00998656,0.041144624,13.85944348,100.51954589,-24.32244873046875
1644645268391,195.25,-178.34375,-88.1875,22.275002,-84.7125,16.06875,-0.112285614,0.38125175,-0.08746219,-9.4774475,0.7906851,-0.107140526,-0.019174194,-0.050465416,-0.0046603945,13.85944348,100.51954589,-24.32244873046875
1644645268493,195.17188,-178.39062,-88.046875,22.743752,-84.1875,15.337501,0.47795105,-0.34470212,0.5782626,-9.1751795,-0.8379706,0.36750996,-0.058587816,-0.03768262,-0.014247492,13.85944348,100.51954589,-24.32244873046875
1644645268596,195.39062,-178.60938,-88.328125,23.8875,-84.600006,16.125,-0.3566475,-1.2227103,2.3216949,-9.405622,-1.1492168,1.311424,0.052196417,-0.04194355,0.054992653,13.85944348,100.51954589,-24.32244873046875
1644645268698,195.125,-178.40625,-88.234375,25.44375,-83.34375,15.918751,0.64815617,-0.76921654,0.48104802,-7.07726,-1.1683705,2.0057425,-0.015978495,-0.08135717,0.016644266,13.85944348,100.51954589,-24.32244873046875
1644645268800,195.25,-178.53125,-88.359375,26.19375,-83.26875,14.493751,1.7742043,1.6021695,-1.5956573,-5.5102553,0.53689975,-3.4799721,-0.17256775,-0.2049242,0.24566936,13.85944348,100.51954589,-24.32244873046875
1644645268905,195.5625,-178.95312,-88.9375,27.337502,-82.200005,14.531251,6.308633,0.23823941,-6.0514317,-2.0416555,-3.2812533,3.7020345,-0.43674555,0.2595174,0.17962492,13.85944348,100.51954589,-24.32244873046875
1644645269008,196.03125,-179.3125,-88.984375,29.1375,-79.950005,13.968751,-0.6138029,-2.8788633,6.17986,-8.251018,-4.5364137,6.5666966,-0.005326165,-0.2272941,0.037948925,13.85944348,100.51954589,-24.32244873046875
1644645269115,195.59375,-178.84375,-88.65625,30.45,-79.818756,13.6125,0.16266823,-0.8388277,2.2676318,-9.38168,-0.2873042,-2.689287,0.19493765,-0.2336855,-0.10905323,13.85944348,100.51954589,-24.32244873046875
1644645269225,194.85938,-178.40625,-88.359375,30.018751,-79.05,16.087502,4.6341457,2.7142596,-5.385279,-5.4767365,-0.51714754,-2.8473043,-0.4612459,0.28082207,0.22436471,13.85944098,100.51959831,-24.92474365234375
1644645269323,195.71875,-178.70312,-88.703125,29.362501,-80.231255,15.806251,-6.935363,5.731798,-0.09803361,-13.262082,-5.773019,3.8361096,-0.877752,-0.019573657,0.7196981,13.85944098,100.51959831,-24.92474365234375
1644645269425,195.85938,-179.0,-89.0,28.06875,-80.4,14.400001,-2.4855843,1.3905437,3.5553453,-12.946047,-2.9843724,7.7931266,-0.64233553,0.28721344,0.2435389,13.85944098,100.51959831,-24.92474365234375
1644645269526,195.76562,-178.89062,-88.875,29.75625,-79.40625,13.44375,-6.9225245,0.11726436,7.2475567,-13.281236,0.6087258,6.681618,0.014913263,-0.35405684,0.050731722,13.85944098,100.51959831,-24.92474365234375
1644645269629,196.79688,-179.125,-89.015625,31.406252,-79.55625,14.175,-7.9503155,2.1228523,5.1659,-18.163013,4.1156325,1.7950528,0.06710968,-0.4978633,-0.025965055,13.85944098,100.51959831,-24.92474365234375
1644645269738,195.51562,-178.53125,-88.421875,31.556252,-79.068756,15.168751,-5.4254,7.3594537,-7.6858063,-12.01171,3.3063924,-2.2535424,-0.5422036,-0.061117746,0.35538837,13.85944098,100.51959831,-24.92474365234375
1644645269836,196.25,-178.78125,-88.671875,30.6,-78.61875,14.85,0.58019066,8.044299,-5.6368947,-12.193669,10.243592,-2.689287,-0.15339355,0.48747727,-0.117575094,13.85944098,100.51959831,-24.92474365234375
1644645269941,196.51562,-178.89062,-88.59375,30.018751,-78.975006,15.450001,-1.7317257,1.2863057,-1.6061496,-15.111603,4.350863,-2.0518308,0.08841434,0.33834463,0.0038614697,13.85944098,100.51959831,-24.92474365234375
1644645270041,195.90625,-178.57812,-88.328125,28.7625,-78.24375,14.75625,0.9928694,5.782485,-5.140309,-10.909779,6.027403,-2.9670146,-0.35578784,0.27016973,0.05392742,13.85944098,100.51959831,-24.92474365234375
1644645270152,196.46875,-178.5625,-88.109375,31.181252,-80.49375,15.225,-1.7439909,-1.8643224,6.5235696,-11.676521,-2.3900118,8.215105,-0.07882725,-0.062182978,0.108254306,13.85943443,100.51964872,-25.603851318359375
1644645270255,195.84375,-178.17188,-87.453125,31.725,-81.262505,16.66875,-2.296667,-4.655518,8.87315,-10.00896,-0.4165911,4.818331,0.6327484,-0.327426,-0.07709624,13.85943443,100.51964872,-25.603851318359375
1644645270362,195.57812,-178.03125,-87.609375,30.956251,-82.21875,18.2625,2.0685353,3.789119,-6.085941,-7.699753,6.338649,-8.385692,0.0969362,0.19134249,-0.06963961,13.85943443,100.51964872,-25.603851318359375
1644645270460,195.45312,-178.07812,-87.578125,32.1375,-84.28125,19.10625,9.279274,1.1398661,-9.313141,-5.4144874,5.4521956,-9.07582,0.09480574,0.6877411,-0.30612135,13.85943443,100.51964872,-25.603851318359375
1644645270558,195.89062,-178.0625,-87.90625,30.31875,-84.225006,21.45,4.311199,3.0501463,-5.7885346,-6.569091,2.1374235,-8.160637,-0.106523305,0.37349734,-0.05579158,13.85943443,100.51964872,-25.603851318359375
1644645270667,195.0625,-177.625,-87.4375,31.706251,-84.637505,24.375002,-2.8036442,13.987873,-15.439319,-17.483059,10.473435,-8.586804,-1.0002538,0.69413245,-0.016377958,13.85943443,100.51964872,-25.603851318359375
1644645270766,195.73438,-178.10938,-87.453125,29.643751,-86.700005,27.750002,4.353175,0.8157553,-7.031789,-9.43914,-1.4227544,0.52073884,-0.26204732,0.7303504,0.04220986,13.85943443,100.51964872,-25.603851318359375
1644645270869,196.26562,-178.59375,-87.453125,26.812502,-88.125,29.56875,0.7696266,-2.6259246,3.0628128,-11.86327,-2.0021513,5.905897,0.141676,0.2147776,-0.21557653,13.85943443,100.51964872,-25.603851318359375
1644645270975,197.46875,-179.42188,-86.546875,25.81875,-90.3375,29.79375,-2.0041342,-2.6225092,4.3303127,-11.753136,-0.39743748,0.7026982,0.5517907,-0.26990342,-0.23581596,13.85943443,100.51964872,-25.603851318359375
1644645271080,196.89062,-179.03125,-86.96875,26.250002,-91.05,26.23125,4.4019947,-1.9157406,-4.3637385,-7.632715,3.0520086,-7.417835,0.5081161,0.16151595,-0.44886255,13.85943443,100.51964872,-25.603851318359375
1644645271186,196.8125,-178.98438,-87.328125,26.493752,-92.08125,25.800001,4.1884117,0.5211334,-2.6514144,-7.0102224,1.0163386,-3.7576995,0.15658925,0.46510738,-0.05366111,13.85942844,100.51969511,-25.5576171875
1644645271286,197.73438,-179.53125,-88.25,26.7,-93.693756,26.1,4.4667463,-0.9499882,-2.7094066,-8.5622635,-0.7613561,-1.9273324,-0.013848029,0.34686652,-0.12716219,13.85942844,100.51969511,-25.5576171875
1644645271388,197.26562,-179.625,-88.5625,28.143751,-94.5,24.69375,2.8565588,-0.72065926,-2.5877705,-7.297527,-1.91596,-0.7679402,-0.046870254,0.26377833,0.050731722,13.85942844,100.51969511,-25.5576171875
1644645271487,198.07812,180.0,-88.46875,28.44375,-95.100006,23.56875,2.7005386,-1.3503361,2.4208057,-9.002797,-3.156755,0.074818805,-0.0117175635,0.04860126,-0.016377958,13.85942844,100.51969511,-25.5576171875
1644645271589,197.90625,-179.92188,-88.296875,30.337502,-94.537506,23.081251,1.7383986,-2.0252838,2.1943324,-8.940548,-2.011728,-1.1228806,0.15339355,-0.013182258,-0.04513925,13.85942844,100.51969511,-25.5576171875
1644645271697,197.59375,-179.75,-88.234375,30.88125,-95.325005,19.96875,0.8958092,-1.5277088,-2.066618,-8.145673,0.6183026,-0.75357497,0.1288932,0.09653674,-0.08135717,13.85942844,100.51969511,-25.5576171875
1644645271794,197.73438,-179.79688,-88.328125,31.725,-94.33125,19.425001,1.2187548,0.41615424,0.3541129,-8.246229,0.019752163,-1.2856863,-0.029826526,-0.008921326,0.0177095,13.85942844,100.51969511,-25.5576171875
1644645271900,197.42188,-179.6875,-88.546875,32.04375,-93.05625,17.75625,-0.6215868,0.621274,-0.8109895,-8.595782,0.9828198,-1.3670892,-0.001065233,-0.03874785,0.041144624,13.85942844,100.51969511,-25.5576171875
1644645272000,197.59375,-179.73438,-88.59375,30.975,-92.887505,16.725,1.5497789,1.4400202,-0.97684985,-10.181343,0.6087258,-2.5360582,-0.08947957,0.08694965,0.036883693,13.85942844,100.51969511,-25.5576171875
1644645272104,196.875,-179.09375,-86.359375,31.087502,-92.11875,15.525001,0.40863705,-1.2694519,-0.15370625,-9.635465,-0.32561144,0.2669535,0.054326884,0.05925359,-0.029160755,13.85942844,100.51969511,-25.5576171875
1644645272206,196.875,-179.04688,-86.375,30.825,-90.225006,14.175,-0.13521671,-0.31843358,-0.33415943,-9.793482,0.14903906,-1.1659763,0.047935486,0.013448567,-0.018508423,13.85941477,100.51975784,-25.65576171875
1644645272309,196.32812,-178.53125,-84.828125,30.393751,-90.5625,12.656251,0.93652916,0.14310022,-0.20592666,-8.4425535,-0.44532153,-0.54767364,-0.039413624,-0.008921326,0.05392742,13.85941477,100.51975784,-25.65576171875
1644645272412,196.0,-178.26562,-83.265625,27.468752,-88.256256,12.58125,0.44284248,-0.51454437,0.061454773,-9.951499,-1.1587936,-1.4867992,-0.013848029,-0.057922047,0.0017310036,13.85941477,100.51975784,-25.65576171875
1644645272514,195.95312,-178.17188,-83.390625,26.625002,-86.925,10.96875,-0.3789463,0.14037979,-0.5143778,-9.362526,0.5895722,-1.2617443,-0.017043728,-0.030225987,0.02197043,13.85941477,100.51975784,-25.65576171875
1644645272621,196.34375,-178.53125,-83.921875,25.66875,-85.40625,10.2375,0.79358196,0.020037085,-0.8939184,-9.740809,0.12030864,-1.7118542,-0.034087457,0.018774733,0.0027962367,13.85941477,100.51975784,-25.65576171875
1644645272713,196.28125,-178.46875,-83.5625,25.706251,-84.4875,11.34375,-0.5522404,1.315423,-0.6072975,-10.406996,1.1791444,-1.99437,-0.06284875,-0.017443191,0.07310162,13.85941477,100.51975784,-25.65576171875
1644645272828,196.73438,-178.84375,-83.515625,25.931252,-83.86875,12.3,-2.1889553,0.82139105,-1.2483616,-9.050681,0.16819267,0.5638345,-0.055392116,-0.039813083,0.07416685,13.85941477,100.51975784,-25.65576171875
1644645272928,196.53125,-178.6875,-83.34375,24.075,-82.818756,12.4875,1.0819025,-0.034730956,1.8616054,-9.415198,-0.46447513,-0.030526072,-0.015978495,-0.043008782,-0.016377958,13.85941477,100.51975784,-25.65576171875
