timestamp,orientation.x,orientation.y,orientation.z,ak0991x_magnetometer.x,ak0991x_magnetometer.y,ak0991x_magnetometer.z,linear_acceleration.x,linear_acceleration.y,linear_acceleration.z,icm4x6xx_accelerometer.x,icm4x6xx_accelerometer.y,icm4x6xx_accelerometer.z,icm4x6xx_gyroscope.x,icm4x6xx_gyroscope.y,icm4x6xx_gyroscope.z,GPS.lat,GPS.long,GPS.alt
1644885842091,96.640625,177.01562,-71.109375,13.2375,-18.75,-14.475,2.7670918,-1.1795367,2.249601,-7.225701,-2.8167782,-0.40880993,-0.25831902,0.07629731,-0.030492295,13.85837739,100.53417694,-26.20709228515625
1644885842192,94.40625,177.375,-71.265625,15.975,-17.0625,-14.137501,4.8555927,-2.0546665,2.1422515,-6.0758853,-4.4358573,-2.066196,-0.3520595,0.17323352,-0.06564499,13.85844869,100.53408015,-29.30755615234375
1644885842293,92.390625,177.78125,-71.828125,19.143751,-19.29375,-12.750001,5.2439,-3.780826,-0.8600249,-8.859145,-4.675876,-0.13108255,-0.12929265,0.48108587,-0.16151595,13.85844869,100.53408015,-29.30755615234375
1644885842394,90.375,177.875,-71.921875,19.556252,-17.56875,-10.181251,1.2433567,-1.7744409,3.3528838,-12.6060705,-0.10474633,-0.24121583,-0.02063889,0.27016973,-0.18069015,13.85844869,100.53408015,-29.30755615234375
1644885842497,88.515625,178.20312,-72.015625,19.893751,-17.625,-8.043751,3.170597,-7.0835924,3.3033485,-10.435727,-2.2798786,-0.9935937,0.37243208,0.30958334,-0.3404751,13.85844869,100.53408015,-29.30755615234375
1644885842602,86.09375,178.625,-71.3125,17.56875,-16.63125,-6.0375004,3.0070896,0.34910625,-1.8876595,-9.060258,-1.4514848,-2.6940753,-0.38188604,0.18495108,-0.05925359,13.85844869,100.53408015,-29.30755615234375
1644885842702,84.078125,179.17188,-71.28125,16.931252,-16.575,-6.5437503,-0.04716301,-1.038792,3.8807402,-10.277111,-1.963844,1.7663223,-0.0920095,0.2754959,-0.14447223,13.85844869,100.53408015,-29.30755615234375
1644885842807,82.125,179.42188,-70.9375,17.2875,-15.375001,-5.55,0.44264507,-2.2843366,2.8622448,-11.039065,-1.8106151,0.17058687,-0.13142313,0.107189074,-0.11358047,13.85844869,100.53408015,-29.30755615234375
1644885842907,79.265625,-179.96875,-70.984375,19.143751,-15.20625,-4.9500003,-0.70686245,0.08451867,1.8170754,-9.333796,-0.78529817,0.760159,-0.25938424,0.04327509,-0.013448567,13.85844869,100.53408015,-29.30755615234375
1644885843010,77.703125,-179.75,-70.9375,17.868752,-17.00625,-2.0625,1.1172915,-0.65485847,1.720831,-8.255806,-1.5568297,-0.24121583,-0.21038352,0.04220986,-0.023035664,13.85844869,100.53408015,-29.30755615234375
1644885843116,75.46875,-179.40625,-70.875,15.900001,-16.650002,-2.23125,1.880796,-1.6584105,4.2342095,-12.466608,-3.4105403,4.659715,-0.23168819,0.3916063,-0.12529804,13.85844869,100.53408015,-29.30755615234375
1644885843217,73.65625,-178.98438,-70.640625,18.150002,-16.725,-2.5125,5.1836166,-5.4919496,3.341729,-5.553351,-4.757279,0.050876785,0.07097115,0.2563217,-0.16258119,13.85848517,100.53399473,-28.082916259765625
1644885843318,71.53125,-178.59375,-70.28125,20.456251,-15.7875,-0.7875,2.2498436,-3.6940386,3.4511716,-9.836577,-2.6970682,1.1432313,-0.024899822,0.22010377,-0.16471165,13.85848517,100.53399473,-28.082916259765625
1644885843421,69.375,-178.17188,-70.3125,19.25625,-15.993751,2.9437501,5.215339,-2.2501287,3.958685,-3.9246953,1.0498575,-3.513491,0.13808084,-0.04087832,-0.17962492,13.85848517,100.53399473,-28.082916259765625
1644885843526,67.65625,-177.71875,-70.15625,16.237501,-15.618751,4.6125,3.4895544,1.1087081,-2.6806316,-7.2783732,0.30705637,-4.2413282,-0.2998631,0.24247366,-0.079493016,13.85848517,100.53399473,-28.082916259765625
1644885843623,65.78125,-177.48438,-69.859375,14.08125,-15.7875,3.7125,0.6831083,0.04703033,1.1968486,-10.315418,-1.6813282,-0.46148238,-0.32968962,0.15832026,-0.034753226,13.85848517,100.53399473,-28.082916259765625
1644885843732,63.90625,-176.95312,-69.734375,16.237501,-16.06875,3.43125,-0.29574776,-1.3631113,1.8882354,-10.00896,-1.9351135,1.7950528,-0.24447098,0.13488513,-0.054992653,13.85848517,100.53399473,-28.082916259765625
1644885843833,61.78125,-176.70312,-69.3125,13.593751,-16.425001,6.4875,-0.47205353,-1.2656932,1.3753033,-9.305065,-1.8106151,-1.3910311,-0.19746757,-0.06005251,-0.018774733,13.85848517,100.53399473,-28.082916259765625
1644885843942,59.796875,-176.40625,-69.4375,8.34375,-17.643751,7.9687505,-0.05074215,1.2658966,1.0672262,-9.467871,-0.16759412,-2.1051018,-0.25405806,-0.12822743,-0.0059919357,13.85848517,100.53399473,-28.082916259765625
1644885844051,58.25,-176.125,-69.203125,7.74375,-19.987501,3.0187502,-4.302185,-0.4547711,1.5426906,-10.981605,-3.4919431,1.3305776,-0.4287563,-0.18148908,0.11650986,13.85848517,100.53399473,-28.082916259765625
1644885844147,56.234375,-175.79688,-68.8125,10.6125,-20.6625,1.5562501,-3.8121166,4.122673,0.84120166,-12.337321,1.7872716,-0.801459,-0.39892977,-0.14101022,0.096270435,13.85848517,100.53399473,-28.082916259765625
1644885844246,54.78125,-175.46875,-68.640625,12.31875,-19.800001,1.125,-0.2642212,2.878217,0.64626586,-10.991181,0.53689975,-0.035314474,-0.4351477,0.029427063,-0.047536023,13.8584901,100.53390858,-27.519500732421875
1644885844346,52.6875,-175.0625,-68.609375,13.106251,-20.175001,0.0375,-3.2804317,-0.75002956,4.37374,-10.924144,-1.6382325,2.2786815,-0.17190199,-0.14633639,0.10692277,13.8584901,100.53390858,-27.519500732421875
1644885844447,51.640625,-174.85938,-68.328125,16.3125,-21.13125,-2.68125,0.5577965,-0.3183658,0.15265822,-9.827001,-0.5554548,-2.7419596,-0.17829338,0.077362545,-0.05712312,13.8584901,100.53390858,-27.519500732421875
1644885844550,49.453125,-174.46875,-68.171875,23.868752,-22.48125,-3.8625002,0.4844284,-2.076967,1.1360996,-9.4774475,-2.0308816,-0.31304187,-0.15592349,0.13275467,-0.100797676,13.8584901,100.53390858,-27.519500732421875
1644885844651,48.171875,-174.28125,-68.078125,30.0375,-25.237501,-0.69375,0.1446104,-1.3074585,2.4498043,-11.26412,-2.2224178,-1.7597382,-0.18681525,0.030492295,-0.063514516,13.8584901,100.53390858,-27.519500732421875
1644885844759,46.109375,-173.76562,-68.09375,32.60625,-28.425001,7.51875,-1.1632261,0.045373797,-0.6978643,-9.31943,1.0642227,0.060453594,-0.23168819,0.012383334,-0.047536023,13.8584901,100.53390858,-27.519500732421875
1644885844860,44.609375,-173.45312,-68.15625,30.112501,-29.681252,12.168751,-1.2334156,-1.4706559,1.7162211,-9.4535055,-0.91458505,0.19033903,-0.21570969,-0.06537867,-0.030492295,13.8584901,100.53390858,-27.519500732421875
1644885844961,42.59375,-173.125,-68.03125,28.66875,-28.743752,16.181252,0.49720478,-0.8338264,-1.5379269,-9.281123,-1.2401965,-2.2391772,-0.2806889,0.18069015,-0.028361829,13.8584901,100.53390858,-27.519500732421875
1644885845063,40.25,-172.60938,-68.015625,24.075,-27.056252,18.825,-0.66262436,-1.5172331,2.115531,-10.052056,-0.94810385,-1.8842367,-0.1697715,-0.022769356,-0.06777545,13.8584901,100.53390858,-27.519500732421875
1644885845180,38.640625,-172.3125,-67.984375,20.38125,-26.437502,18.393751,-2.0477238,-2.2173061,1.5997488,-11.441292,-1.9351135,-0.08798691,-0.20399213,0.024100898,-0.0177095,13.85848286,100.53382177,-26.552093505859375
1644885845282,36.3125,-171.875,-67.875,19.725,-26.85,17.493752,-0.7248707,-0.8336403,0.81605554,-11.297639,-1.0582372,-2.2391772,-0.21677493,0.04220986,-0.04966649,13.85848286,100.53382177,-26.552093505859375
1644885845381,34.75,-171.5625,-67.828125,19.706251,-27.862501,16.087502,-0.24682426,-0.69355375,2.351263,-9.534908,-0.521936,-2.6509798,-0.16124965,-0.061117746,-0.007057169,13.85848286,100.53382177,-26.552093505859375
1644885845481,208.03125,170.67188,-78.921875,22.575,-28.25625,15.918751,1.1375589,-0.17965645,-0.7249565,-9.343372,-0.6703765,-2.2822728,-0.28601506,0.08055825,-0.04540556,13.85848286,100.53382177,-26.552093505859375
1644885845584,206.46875,170.76562,-78.640625,25.500002,-27.468752,18.0,-0.44582844,-0.11478454,2.5194907,-10.152613,-1.1827357,1.9003977,-0.3477986,0.0038614697,0.02063889,13.85848286,100.53382177,-26.552093505859375
1644885845685,205.3125,170.73438,-77.984375,25.9125,-27.16875,21.35625,-1.7919207,-1.4251964,0.8221108,-9.194333,-1.8201919,-1.1133038,-0.2519276,-0.05685681,0.033421688,13.85848286,100.53382177,-26.552093505859375
1644885845790,203.4375,170.90625,-77.875,23.0625,-25.800001,25.48125,-0.5728731,-0.7821828,2.0178585,-12.088325,-1.6573862,-1.6591818,-0.26044947,0.026231363,-0.027296597,13.85848286,100.53382177,-26.552093505859375
1644885845892,202.21875,170.95312,-77.75,19.81875,-24.093752,25.331251,-0.5244808,-1.4807653,-0.7201078,-8.768166,-0.6512229,-3.0244753,-0.22636202,0.024100898,-0.023035664,13.85848286,100.53382177,-26.552093505859375
1644885845996,200.32812,171.125,-77.578125,19.1625,-24.581251,25.63125,-0.6247997,-0.96437126,0.84042966,-9.5253315,-1.5711949,-1.4676456,-0.3062545,0.029427063,0.0067908606,13.85848286,100.53382177,-26.552093505859375
1644885846097,198.4375,171.29688,-77.296875,18.45,-24.562502,24.825,1.896131,-0.7984404,1.2005657,-8.4234,-2.2798786,-2.2774844,-0.36271185,0.06031882,0.007856093,13.85848286,100.53382177,-26.552093505859375
1644885846205,197.14062,171.40625,-77.140625,18.6375,-25.875002,25.29375,0.5154247,-1.3560673,3.9936755,-11.575965,-2.7353754,-0.9498995,-0.20186166,0.1178414,-0.069905914,13.85845415,100.53373392,-27.479034423828125
1644885846308,195.09375,171.67188,-76.9375,18.337502,-27.50625,27.300001,-0.33767986,-1.6451604,2.4672856,-9.0315275,-1.8489223,0.026934769,-0.24021004,-0.02063889,-0.007057169,13.85845415,100.53373392,-27.479034423828125
1644885846412,193.26562,171.84375,-76.796875,16.556252,-30.562502,27.91875,-0.29411125,0.2044979,0.51364374,-11.815386,-1.6430209,-3.1729157,-0.30731973,0.10292814,-0.02516613,13.85845415,100.53373392,-27.479034423828125
1644885846512,191.89062,171.95312,-76.609375,17.94375,-32.34375,27.093752,-1.3533201,-2.2607632,2.0811493,-11.853693,-1.9015948,-0.9403227,-0.16657582,0.13168943,-0.06777545,13.85845415,100.53373392,-27.479034423828125
1644885846614,192.07812,170.3125,-77.015625,20.400002,-32.1375,27.4125,-1.5797701,-2.0760052,-0.003452301,-10.1621895,-1.4610616,-0.7870938,-0.19320664,0.040079392,-0.05286219,13.85845415,100.53373392,-27.479034423828125
1644885846718,189.73438,171.34375,-77.890625,20.98125,-32.25,30.337502,0.6564512,-0.23294932,0.8432524,-9.668983,-1.666963,-2.8281507,-0.30092832,0.10505861,-0.037948925,13.85845415,100.53373392,-27.479034423828125
1644885846820,188.45312,170.98438,-77.734375,19.96875,-29.56875,32.9625,-0.7333536,-1.8352594,0.5225458,-10.028113,-1.5376761,-0.777517,-0.2647104,0.05712312,-0.030492295,13.85845415,100.53373392,-27.479034423828125
1644885846927,186.57812,171.04688,-77.375,17.56875,-28.893751,34.10625,-0.060914993,-0.52711356,1.9322209,-9.645041,-1.8680758,-1.5346833,-0.33501577,-0.057922047,-0.0145138,13.85845415,100.53373392,-27.479034423828125
1644885847030,185.32812,171.07812,-77.171875,15.712501,-27.862501,35.175003,-0.51314926,-1.2338076,0.014484167,-8.638878,-1.9446903,-2.6605566,-0.31264588,-0.022769356,-0.008122402,13.85845415,100.53373392,-27.479034423828125
1644885847142,183.39062,171.20312,-77.015625,15.01875,-26.906252,35.68125,0.0834074,-0.8114597,7.7753234,-15.552135,-2.2894554,0.7745243,-0.11011846,0.2786916,-0.17749445,13.85845415,100.53373392,-27.479034423828125
1644885847240,182.17188,171.23438,-76.796875,14.250001,-27.806252,36.3375,-2.4776497,-2.5911515,2.764607,-9.884461,0.7667431,-1.9416976,-0.021704122,-0.19746757,-0.09547151,13.85839347,100.53365266,-28.12841796875
1644885847340,182.0625,169.76562,-77.203125,12.1125,-27.956251,36.24375,0.6653404,-0.7030541,-0.23058462,-11.901577,0.3453636,-1.5586253,-0.20066327,0.19347295,-0.11571094,13.85839347,100.53365266,-28.12841796875
1644885847442,180.51562,170.09375,-77.140625,13.275001,-30.45,33.91875,-2.571969,-0.46803004,2.595718,-14.67526,-4.891354,-0.57640404,-0.37016848,-0.028095521,0.0792267,13.85839347,100.53365266,-28.12841796875
1644885847544,178.8125,170.125,-76.78125,16.1625,-31.125002,33.9375,-0.43074036,1.5434839,3.0179656,-12.002133,-1.3413515,-4.797382,-0.33927673,-0.12396649,0.013182258,13.85839347,100.53365266,-28.12841796875
1644885847646,176.75,170.29688,-76.609375,18.0375,-31.95,34.85625,-1.39505,0.35541952,-1.026649,-9.400833,-1.3988123,-3.5470097,-0.4713656,-0.061117746,0.05685681,13.85839347,100.53365266,-28.12841796875
1644885847749,175.39062,170.32812,-76.421875,18.675001,-34.050003,37.912502,-1.1484137,-0.3703944,0.99466085,-9.1033535,-2.3181858,-0.64823014,-0.34673336,-0.050465416,0.05898728,13.85839347,100.53365266,-28.12841796875
1644885847857,173.53125,170.45312,-76.140625,17.962502,-33.5625,40.725002,-0.61753654,-0.5284933,0.76174545,-9.41041,-0.89064306,-2.1051018,-0.27323228,-0.0856181,-0.011318101,13.85839347,100.53365266,-28.12841796875
1644885847957,172.45312,170.45312,-75.71875,17.550001,-34.631252,40.425003,0.6986151,-0.80375,0.9603851,-9.850943,-2.1936872,-1.5011644,-0.31797206,0.07523208,-0.012383334,13.85839347,100.53365266,-28.12841796875
1644885848060,170.625,170.625,-75.3125,18.581251,-36.35625,40.21875,-0.6528282,-2.709801,3.433134,-9.970653,-1.9829975,0.18076223,-0.06963961,0.063514516,-0.05712312,13.85839347,100.53365266,-28.12841796875
1644885848163,168.79688,170.6875,-75.0625,18.46875,-36.43125,41.34375,0.18362331,0.31890178,-1.2066419,-8.983644,-0.47884035,-1.970428,-0.33075485,0.06777545,-0.033687994,13.85839347,100.53365266,-28.12841796875
1644885848271,167.51562,170.78125,-74.953125,19.050001,-36.862503,43.237503,0.49403858,-2.127883,3.9091911,-9.074623,-3.9474401,-1.1324574,-0.21890539,-0.117575094,0.007856093,13.85831946,100.53359344,-28.918914794921875
1644885848374,165.84375,170.8125,-76.34375,16.81875,-36.506252,44.9625,-0.9225235,-1.3105493,-0.714782,-10.07121,-0.641646,-4.0162735,-0.15272778,-0.007856093,-0.08481918,13.85831946,100.53359344,-28.918914794921875
1644885848474,164.75,170.875,-76.09375,15.4125,-38.775,46.331253,-1.0441427,0.109163165,-1.0634208,-10.07121,-0.33518824,-1.4293385,-0.29453692,0.072036386,-0.029427063,13.85831946,100.53359344,-28.918914794921875
1644885848577,163.67188,170.45312,-77.4375,14.025001,-38.0625,46.03125,0.10511017,-1.8144008,2.0837135,-8.705916,-0.25378537,1.3257892,-0.12822743,0.05392742,-0.08268871,13.85831946,100.53359344,-28.918914794921875
1644885848678,161.79688,171.14062,-77.859375,13.762501,-37.59375,45.5625,-2.089572,-2.306394,0.5817503,-10.291476,-2.5103204,-2.938284,-0.15698871,-0.08029194,-0.026231363,13.85831946,100.53359344,-28.918914794921875
1644885848781,160.1875,171.21875,-78.703125,13.575001,-37.93125,46.4625,-0.43426418,-0.8140351,0.9348502,-9.611523,-1.9111716,-0.3609259,-0.26257995,0.034753226,-0.013448567,13.85831946,100.53359344,-28.918914794921875
1644885848886,158.75,171.15625,-79.0625,12.225,-36.225002,45.9,-0.9971161,-1.803669,0.4497149,-10.07121,-0.17717093,-0.3513491,-0.11224893,0.06031882,-0.11358047,13.85831946,100.53359344,-28.918914794921875
1644885848989,158.89062,170.10938,-77.78125,13.406251,-37.443752,47.15625,-0.576993,0.10188222,1.3658475,-11.834539,-1.5999253,-1.9512744,-0.27216703,0.06031882,-0.04540556,13.85831946,100.53359344,-28.918914794921875
1644885849092,157.5,170.0625,-77.453125,12.7875,-37.800003,48.506252,-0.40411568,-2.089607,2.554273,-11.110891,-3.2237926,-2.0470424,-0.14527115,0.034753226,-0.04647079,13.85831946,100.53359344,-28.918914794921875
1644885849201,156.21875,169.875,-76.984375,11.8125,-36.768753,48.693752,-1.061099,-0.7157756,0.96323276,-9.563639,-1.4275428,-0.6099229,-0.26257995,-0.06644391,0.013182258,13.85823196,100.53354568,-28.21209716796875
1644885849301,155.39062,169.75,-76.71875,11.512501,-36.5625,51.000004,-0.660799,-2.4348662,1.9882479,-11.844116,-2.0739772,-0.56203884,-0.0952052,0.12529804,-0.07416685,13.85823196,100.53354568,-28.21209716796875
1644885849401,153.95312,169.65625,-76.5625,7.8,-35.90625,52.050003,0.33232307,-0.46250266,0.20688677,-11.5951185,2.1757307,-4.768651,0.04540556,0.18388586,-0.19347295,13.85823196,100.53354568,-28.21209716796875
1644885849503,152.875,169.65625,-76.453125,5.1000004,-37.29375,53.100002,0.056437492,-3.629551,1.864105,-10.588956,-4.196437,1.0187328,-0.18575001,0.10292814,-0.061384052,13.85823196,100.53354568,-28.21209716796875
1644885849607,151.40625,169.73438,-76.28125,3.3750002,-37.85625,50.100002,-4.045004,-3.3134751,-0.48855805,-8.66282,-4.550779,0.81761986,-0.44260433,-0.2890776,0.2113156,13.85823196,100.53354568,-28.21209716796875
1644885849711,150.59375,169.64062,-75.921875,4.05,-38.193752,48.131252,-8.704651,6.834909,-3.061793,-20.626047,4.8823757,0.78410107,-0.541671,0.20519051,-0.16258119,13.85823196,100.53354568,-28.21209716796875
1644885849811,149.375,169.57812,-75.625,6.1875005,-36.881252,47.71875,-6.7195005,-1.6105448,-0.88790894,-11.407773,5.744887,2.034473,0.32662708,-0.15592349,-0.26484355,13.85823196,100.53354568,-28.21209716796875
1644885849913,148.34375,169.71875,-75.40625,7.5937505,-34.612503,48.525,-0.89046097,-0.45193243,4.0180655,-13.746309,4.935048,-0.6242881,0.08375394,0.0017310036,-0.22649518,13.85823196,100.53354568,-28.21209716796875
1644885850022,147.26562,169.6875,-74.96875,5.4750004,-34.03125,50.175003,-1.1799793,1.3638318,1.8134148,-12.059594,-1.7866731,-3.503914,-0.3030588,-0.06644391,0.019573657,13.85823196,100.53354568,-28.21209716796875
1644885850130,145.46875,170.03125,-75.484375,4.4625,-34.631252,48.750004,-2.3700533,-1.1740795,-1.0882101,-7.7811556,-0.90021986,0.7074866,-0.1953371,-0.17083675,0.082422405,13.85823196,100.53354568,-28.21209716796875
1644885850227,145.125,169.89062,-75.234375,7.3125005,-36.112503,48.73125,-1.5398378,0.44617236,0.2657857,-9.491813,-0.11911154,-0.6338649,-0.21251398,-0.057922047,0.04620448,13.85813928,100.53351672,-26.075836181640625
1644885850329,143.46875,169.96875,-75.34375,7.8375,-35.662502,51.787502,-0.9467392,-0.56007063,0.5678134,-10.354323,-0.5650316,-0.58119243,-0.10266183,0.16897258,-0.019839965,13.85813928,100.53351672,-26.075836181640625
1644885850427,142.84375,169.89062,-75.15625,3.73125,-35.850002,53.49375,-1.1154175,-1.2371771,-1.4930325,-8.09719,-1.441908,-0.38486794,-0.21038352,0.08801488,0.0067908606,13.85813928,100.53351672,-26.075836181640625
1644885850528,141.42188,170.20312,-75.328125,1.10625,-35.9625,50.8875,-0.39232826,-0.45981598,1.0141068,-8.322844,-2.730587,-2.7754784,-0.25299284,-0.20172851,0.0920095,13.85813928,100.53351672,-26.075836181640625
1644885850629,140.51562,170.375,-75.1875,1.5,-38.381252,50.850002,0.5198641,0.55354655,0.047668457,-8.082825,-1.3892355,-3.0484173,-0.21997061,-0.12716219,0.03768262,13.85813928,100.53351672,-26.075836181640625
1644885850729,139.54688,170.40625,-74.71875,0.71250004,-39.112503,51.206253,-0.33750057,0.31272435,0.32144046,-9.994595,-1.1683705,-1.6352397,-0.18361954,0.034753226,0.05579158,13.85813928,100.53351672,-26.075836181640625
1644885850837,139.15625,170.23438,-74.28125,1.6875001,-40.8375,48.768753,-0.3635788,-1.5296936,2.86377,-10.03769,-1.2449849,0.58298814,0.04540556,0.05925359,-0.05605789,13.85813928,100.53351672,-26.075836181640625
1644885850935,137.92188,170.375,-74.4375,2.8125,-41.86875,48.91875,1.3551168,0.4716974,3.2790716,-9.702502,0.24001873,-3.3746274,-0.0067908606,-0.1335536,-0.032622762,13.85813928,100.53351672,-26.075836181640625
1644885851038,137.125,170.5,-74.46875,3.24375,-42.412502,50.456253,0.09385109,-0.39926827,0.58947885,-10.723031,-2.1458032,-3.3123782,-0.0920095,-0.03448692,-0.032622762,13.85813928,100.53351672,-26.075836181640625
1644885851150,135.85938,170.875,-74.5,1.8375001,-43.275,51.562504,-0.021194458,0.20976594,0.9692795,-9.520543,0.32142156,-1.055843,-0.07709624,-0.0046603945,-0.06884068,13.85813928,100.53351672,-26.075836181640625
1644885851252,135.10938,171.01562,-74.515625,-0.39375,-42.300003,52.48125,0.10460758,-0.73100156,0.029395342,-8.203134,-0.21068975,-0.3226187,-0.032356452,0.047536023,-0.05286219,13.85803568,100.53350339,-24.83251953125
1644885851355,134.375,171.01562,-74.609375,-2.0812502,-41.53125,49.93125,2.3874698,-1.6209264,-0.8742032,-8.878299,-1.1252748,-1.7597382,0.0017310036,0.19773388,-0.10292814,13.85803568,100.53350339,-24.83251953125
1644885851459,133.96875,170.95312,-74.5625,1.29375,-42.375,49.537502,-0.4076414,-0.42322284,1.4397402,-9.937134,-0.7374141,-1.1085154,-0.04940018,-0.036617383,-0.028361829,13.85803568,100.53350339,-24.83251953125
1644885851563,130.10938,173.46875,-76.921875,1.35,-43.0125,48.15,1.2013569,0.12592661,2.3515959,-10.952874,-1.1252748,-0.43275195,-0.062182978,0.122102335,-0.047536023,13.85803568,100.53350339,-24.83251953125
1644885851663,129.54688,173.51562,-76.953125,3.24375,-43.068752,46.2,-3.4326925,0.546694,-0.13915086,-11.139622,2.0697873,0.415394,0.0145138,0.012383334,-0.015579033,13.85803568,100.53350339,-24.83251953125
1644885851763,129.03125,173.46875,-76.828125,5.9812503,-43.612503,47.925003,0.82695293,1.1269674,0.7370571,-10.531495,0.6278794,-1.1899183,-0.061117746,0.064579755,-0.044340324,13.85803568,100.53350339,-24.83251953125
1644885851870,128.375,173.59375,-77.0,4.425,-44.081253,50.4,0.37333775,0.703631,0.5397117,-9.4535055,1.7824832,-2.3157916,0.07629731,0.009187635,-0.07523208,13.85803568,100.53350339,-24.83251953125
1644885851971,128.125,173.59375,-76.921875,3.2812502,-44.71875,48.206253,1.7541451,1.1605275,-0.27559173,-7.5800424,-0.62249243,-0.38486794,-0.08135717,0.07523208,0.017443191,13.85803568,100.53350339,-24.83251953125
1644885852078,127.8125,173.57812,-76.96875,4.18125,-45.2625,47.04375,0.33002663,-1.0060203,1.3708056,-7.8769236,1.0067618,2.1206641,0.17642923,0.028361829,-0.058188353,13.85803568,100.53350339,-24.83251953125
1644885852178,147.17188,173.51562,-76.90625,4.93125,-45.9,47.30625,1.3614388,-0.60571265,2.019579,-9.045893,-0.25378537,-0.480636,0.107189074,0.05712312,-0.061384052,13.85803568,100.53350339,-24.83251953125
1644885852278,144.53125,177.34375,-79.65625,7.2562504,-45.09375,46.331253,2.0917263,2.9955993,0.8645319,-10.03769,1.79206,-5.3767786,0.13595037,0.029427063,-0.06671022,13.85792644,100.53349463,-23.60357666015625
1644885852379,144.4375,177.35938,-79.828125,8.45625,-43.987503,48.112503,0.3669548,0.6102871,-0.068881035,-10.023325,-0.11432313,-2.4833858,0.0177095,0.029427063,-0.033687994,13.85792644,100.53349463,-23.60357666015625
1644885852481,144.71875,177.21875,-79.875,8.475,-45.16875,48.3375,1.0786467,2.5347807,0.6815053,-10.09994,2.2619221,-0.11671733,-0.024899822,0.09547151,-0.04966649,13.85792644,100.53349463,-23.60357666015625
1644885852585,144.8125,177.125,-79.921875,9.7875,-47.006252,48.768753,-2.5558767,0.20962487,-0.77486944,-10.531495,1.4760253,0.92296475,0.018774733,-0.0067908606,0.0014646954,13.85792644,100.53349463,-23.60357666015625
1644885852688,145.09375,176.9375,-80.0,8.6625,-46.65,49.93125,-1.2867746,0.908794,0.71702516,-10.493188,-0.37349546,-1.6448165,-0.017443191,-0.015312725,0.050465416,13.85792644,100.53349463,-23.60357666015625
1644885852791,145.29688,176.78125,-80.03125,7.55625,-46.068752,50.662502,-1.5778751,2.4090567,-0.39347923,-9.4535055,1.1168951,-0.26994625,-0.16764104,-0.15592349,0.089879036,13.85792644,100.53349463,-23.60357666015625
1644885852893,145.45312,176.6875,-79.921875,6.9375005,-43.65,47.86875,0.6592922,0.9696064,2.5946484,-10.617686,-0.92416185,-2.3732524,0.0027962367,-0.16018441,0.04620448,13.85792644,100.53349463,-23.60357666015625
1644885853001,143.29688,178.53125,-81.21875,10.05,-42.75,46.800003,-0.3825121,1.1439859,0.10998607,-8.500014,1.021127,-0.38486794,-0.051530648,-0.10266183,0.051530648,13.85792644,100.53349463,-23.60357666015625
1644885853103,141.03125,-179.4375,-80.984375,11.025001,-41.831253,50.41875,0.9290209,2.648169,0.40668464,-9.242816,-0.7182605,-1.1707647,-0.21784015,0.06884068,0.07177007,13.85792644,100.53349463,-23.60357666015625
1644885853204,140.82812,-179.28125,-81.5625,7.5000005,-41.79375,52.031254,-1.3004961,1.435686,0.5136975,-11.44608,1.1312603,-1.9608512,0.011318101,0.06564499,0.03129122,13.85781963,100.53348392,-22.73883056640625
1644885853302,140.84375,-179.26562,-81.8125,4.6875,-43.59375,51.881252,-0.5875225,1.5810387,0.52769053,-10.493188,-0.15263036,-2.794632,-0.07709624,-0.05898728,0.050465416,13.85781963,100.53348392,-22.73883056640625
1644885853408,140.75,-179.17188,-81.921875,5.2875004,-44.550003,48.862503,0.652689,0.7328519,-0.12604582,-8.643666,-0.866701,-2.3493104,-0.12396649,-0.14101022,0.04513925,13.85781963,100.53348392,-22.73883056640625
1644885853513,140.75,-179.125,-81.609375,7.6875005,-44.381252,49.068752,3.233708,-0.7870815,0.39838326,-5.5341973,-1.9782091,-0.6865373,-0.10266183,-0.0920095,0.04833495,13.85781963,100.53348392,-22.73883056640625
1644885853615,140.65625,-179.10938,-81.546875,7.5375004,-44.86875,49.312504,2.8689413,-2.4340744,1.0153017,-5.965752,-1.6956934,1.0809821,0.1178414,0.11571094,-0.07310162,13.85781963,100.53348392,-22.73883056640625
1644885853716,140.51562,-179.03125,-81.671875,8.493751,-44.268753,49.687504,4.1209664,-2.502773,-0.17399204,-6.4302273,-0.6799533,-1.8459295,0.18814678,0.18708155,-0.143407,13.85781963,100.53348392,-22.73883056640625
1644885853826,140.67188,-179.14062,-81.921875,6.9375005,-44.49375,50.8875,0.27776718,0.07697449,0.6234317,-9.726444,-0.62249243,-0.9498995,-0.036617383,0.032622762,0.029160755,13.85781963,100.53348392,-22.73883056640625
1644885853912,140.5,-179.09375,-82.21875,4.70625,-43.350002,48.9,2.5686078,-0.97587365,-0.7582407,-5.2564697,-1.2934675,0.5351041,-0.039813083,0.036883693,0.02063889,13.85781963,100.53348392,-22.73883056640625
1644885854022,140.46875,-179.125,-82.203125,6.3187504,-43.29375,49.406254,2.6946974,0.14322393,0.9253446,-8.461707,5.985504E-4,-1.1803415,0.09227581,0.21690807,-0.07416685,13.85781963,100.53348392,-22.73883056640625
1644885854125,140.48438,-179.15625,-82.046875,5.1937504,-43.2,49.93125,2.3767729,-0.61469084,1.3322879,-8.361151,0.28790274,0.15143326,0.09121058,0.041144624,-0.072036386,13.85781963,100.53348392,-22.73883056640625
1644885854230,140.51562,-179.14062,-81.96875,5.4375,-41.98125,47.86875,3.139985,-0.6266181,-2.3341537,-9.774328,-0.7565677,-3.3315318,0.0038614697,0.29147437,-0.100797676,13.85770288,100.5334781,-21.98480224609375
1644885854333,140.23438,-179.01562,-82.15625,6.1875005,-41.2125,47.287502,-1.65137,-0.81487465,1.7889603,-11.839328,0.13467385,1.2389994,0.09121058,0.04540556,-0.007057169,13.85770288,100.5334781,-21.98480224609375
1644885854436,140.40625,-179.14062,-82.296875,6.9750004,-42.318752,47.456253,-3.0922794,0.18754554,-1.9158429,-11.259332,1.3036429,-1.7645266,-0.00998656,0.024100898,0.0025299285,13.85770288,100.5334781,-21.98480224609375
1644885854554,140.32812,-179.15625,-82.390625,10.556251,-42.600002,47.925003,1.5972433,0.9033426,2.4536805,-7.2113357,-0.32561144,-0.3226187,-0.082422405,-0.18575001,0.067509145,13.85770288,100.5334781,-21.98480224609375
1644885854659,140.20312,-179.09375,-82.203125,11.08125,-41.9625,49.7625,0.37144756,1.4526638,-0.06135261,-8.634089,0.13467385,-3.1250317,-0.06644391,-0.10585753,0.021704122,13.85770288,100.5334781,-21.98480224609375
1644885854758,140.01562,-179.03125,-82.21875,8.7375,-43.0875,51.562504,2.2670794,0.29823226,-0.8109462,-7.350199,0.74758947,-2.3971944,0.034753226,0.0027962367,-0.011318101,13.85770288,100.5334781,-21.98480224609375
1644885854858,139.98438,-178.95312,-82.234375,7.0875,-43.912502,50.5875,1.078454,0.11835532,-0.35155952,-8.222287,-0.91458505,-1.6879122,-0.12609696,-0.03874785,0.0046603945,13.85770288,100.5334781,-21.98480224609375
1644885854963,139.78125,-178.85938,-82.515625,7.0125003,-44.456253,49.968754,1.52071,-2.1495912,-0.8393904,-9.324219,-2.236783,-2.7084408,0.047536023,0.1178414,-0.04540556,13.85770288,100.5334781,-21.98480224609375
1644885855069,139.75,-178.90625,-82.609375,7.0687504,-44.25,51.112503,1.2166348,1.4313747,-0.17959356,-9.4774475,0.8002619,-3.115455,-0.04833495,0.027296597,0.0046603945,13.85770288,100.5334781,-21.98480224609375
1644885855172,139.67188,-178.89062,-82.75,5.4,-43.7625,50.625004,0.815197,1.5467507,0.82194424,-11.177929,0.43634325,-1.7741034,-0.032356452,0.09760197,-0.03901416,13.85770288,100.5334781,-21.98480224609375
1644885855275,139.67188,-178.95312,-82.859375,5.3812504,-43.575,50.287502,-0.8367214,-0.7190877,-2.400665,-9.348161,1.1552023,-0.27473465,0.036883693,0.0038614697,-0.06884068,13.85757767,100.53347863,-21.88555908203125
1644885855375,139.5,-178.875,-82.921875,3.73125,-43.2,49.537502,-0.3273878,-0.4131714,0.04191506,-9.487024,-0.6655881,-1.2282255,-0.039813083,-0.07390054,0.03874785,13.85757767,100.53347863,-21.88555908203125
1644885855479,139.39062,-178.85938,-82.890625,5.4187503,-43.65,46.0125,0.055595398,1.4176596,0.5818654,-9.276335,0.06284779,-1.4341269,-0.118640326,-0.10692277,0.067509145,13.85757767,100.53347863,-21.88555908203125
1644885855583,139.10938,-178.73438,-82.921875,6.0375004,-45.15,47.11875,-0.7003145,1.836171,0.8796127,-10.799645,1.1073183,-2.167351,-0.047269717,-0.036617383,0.018508423,13.85757767,100.53347863,-21.88555908203125
1644885855686,139.125,-178.82812,-83.375,7.1625004,-45.9,47.79375,0.89940643,-1.7197618,0.7472595,-8.653243,-0.2825158,1.3928268,0.063514516,0.041144624,-0.09121058,13.85757767,100.53347863,-21.88555908203125
1644885855785,138.09375,-178.0,-83.28125,7.3125005,-45.80625,50.025,-0.7749071,0.6962807,1.417365,-9.491813,1.7729063,1.1240777,0.05712312,-0.062182978,-0.028361829,13.85757767,100.53347863,-21.88555908203125
1644885855886,138.0,-177.90625,-83.25,5.4187503,-45.318752,50.268753,-1.0052271,0.58245873,-0.38099182,-11.388618,1.4089876,0.08439561,-0.03768262,0.03155753,-0.0038614697,13.85757767,100.53347863,-21.88555908203125
1644885855989,137.8125,-177.84375,-84.546875,4.3500004,-44.90625,50.5875,-1.2469826,-0.3202067,0.56440294,-10.085575,0.8002619,1.1815386,0.030492295,-0.028095521,0.029160755,13.85757767,100.53347863,-21.88555908203125
1644885856094,137.84375,-177.9375,-84.71875,3.2250001,-44.325,50.081253,0.6520872,1.7656711,0.63059974,-9.88925,0.66139823,-4.9123034,-0.012117025,-0.04194355,0.015312725,13.85757767,100.53347863,-21.88555908203125
1644885856206,137.90625,-178.01562,-84.734375,2.8875,-43.350002,48.506252,1.6041021,-0.8612754,1.1025443,-7.4028716,-0.013766659,3.4955344,0.05392742,0.072036386,-0.018774733,13.85744998,100.53347664,-21.6536865234375
1644885856301,137.6875,-177.84375,-84.796875,4.40625,-43.443752,44.625,2.0247498,-0.7088178,0.91713357,-8.476072,-0.46447513,-0.6721721,0.036883693,-0.0035951615,-0.037948925,13.85744998,100.53347664,-21.6536865234375
1644885856406,137.46875,-177.60938,-86.046875,9.431251,-42.581253,44.362503,0.45478344,-1.1601107,-0.40091765,-8.830415,-1.0630256,-0.13587095,0.015579033,0.05392742,0.0035951615,13.85744998,100.53347664,-21.6536865234375
1644885856506,137.42188,-177.64062,-86.109375,10.9125,-44.025,50.79375,-0.88234997,-1.5307292,0.30077565,-8.399458,-0.22505496,1.6801311,0.02197043,-0.06963961,0.0057256273,13.85744998,100.53347664,-21.6536865234375
1644885856614,137.5,-177.71875,-86.453125,3.9562502,-43.8375,53.1375,0.24167347,0.48714453,-0.40511668,-11.029489,-0.5602432,-2.3588872,-0.047269717,0.11038477,0.0046603945,13.85744998,100.53347664,-21.6536865234375
1644885856715,137.5,-177.70312,-86.640625,2.9625,-45.956253,48.61875,1.7570996,-1.5000769,0.13387781,-8.552687,-1.6095021,1.1001357,-0.05685681,0.11677617,0.00998656,13.85744998,100.53347664,-21.6536865234375
1644885856819,137.65625,-177.79688,-86.6875,3.2250001,-45.600002,48.562504,-0.430768,0.29673284,2.7362747,-10.373477,0.5129577,-0.6194997,0.09014534,-0.10692277,-0.012383334,13.85744998,100.53347664,-21.6536865234375
1644885856919,137.5625,-177.71875,-86.625,2.79375,-45.15,47.5875,0.21752834,0.8218776,0.15677929,-7.824251,1.7824832,1.4502877,-0.02063889,-0.017443191,-6.657706E-4,13.85744998,100.53347664,-21.6536865234375
1644885857030,137.40625,-177.60938,-86.5625,6.3750005,-44.775,46.0125,-0.31546974,0.35393065,1.2610166,-10.478823,-0.05207389,-0.15502456,-0.027030287,-0.012117025,-0.03155753,13.85744998,100.53347664,-21.6536865234375
1644885857128,137.45312,-177.625,-86.703125,7.275,-42.506252,46.3875,0.63659954,-1.0981994,0.58666146,-9.563639,-0.79966336,0.2765303,0.044340324,0.013448567,-0.03155753,13.85744998,100.53347664,-21.6536865234375
1644885857231,137.89062,-178.0,-87.5,10.1625,-41.53125,46.518753,-0.03922367,2.4538717,1.5035706,-9.635465,0.41718966,-1.4197617,-0.13781452,-0.08668334,0.03129122,13.85732297,100.53347884,-21.6180419921875
1644885857334,138.14062,-178.23438,-87.6875,10.368751,-41.025,48.225002,-0.6888876,1.7863542,2.371196,-9.257181,2.6354175,1.83336,-0.013182258,-0.12290126,-0.0027962367,13.85732297,100.53347884,-21.6180419921875
1644885857434,137.85938,-177.98438,-87.609375,9.637501,-41.60625,47.86875,0.034352303,0.9592053,1.0682733,-12.045229,1.1552023,-1.769315,0.072036386,0.03155753,-0.07097115,13.85732297,100.53347884,-21.6180419921875
1644885857546,137.5625,-177.6875,-87.640625,9.825001,-42.24375,48.075,2.055336,4.0697756,1.2616205,-9.1272955,1.4903905,-0.777517,-0.2508624,0.012383334,0.03874785,13.85732297,100.53347884,-21.6180419921875
1644885857647,137.90625,-2.078125,-87.90625,10.33125,-42.54375,46.96875,-1.5519047,1.2210625,0.4611943,-9.721656,3.0903158,3.9989154,-0.008921326,-0.03768262,-0.033687994,13.85732297,100.53347884,-21.6180419921875
1644885857752,138.15625,-1.859375,-88.109375,11.34375,-43.3875,48.318752,-0.37115288,2.2553,0.5089853,-8.375516,1.7106571,-1.9321208,-0.07070484,-0.25072923,0.029160755,13.85732297,100.53347884,-21.6180419921875
1644885857857,138.14062,-1.765625,-88.171875,10.125,-41.2125,47.925003,-0.6492729,-0.36577347,1.7160922,-10.03769,-0.93852705,2.7246015,-0.012117025,-0.028095521,-0.016644266,13.85732297,100.53347884,-21.6180419921875
1644885857956,138.45312,-1.5625,-88.390625,11.83125,-40.912502,47.71875,1.218502,-1.0843437,1.5677737,-7.350199,-0.04249708,0.23822308,0.069905914,-0.09733567,-0.03581846,13.85732297,100.53347884,-21.6180419921875
1644885858066,138.64062,-1.328125,-88.609375,12.993751,-40.143753,48.2625,-1.0592175,0.14388615,0.24990413,-7.6614456,1.2940661,3.0933087,0.008122402,-0.05366111,0.019573657,13.85732297,100.53347884,-21.6180419921875
1644885858169,139.14062,-0.953125,-88.921875,14.437501,-40.256252,48.412502,-3.8149958,0.38131034,-1.9070041,-9.807847,3.2202013,3.7259765,-0.057922047,-0.07070484,0.0057256273,13.85732297,100.53347884,-21.6180419921875
1644885858272,139.21875,-0.8125,-88.984375,11.925,-41.53125,51.225002,-0.24227905,0.72019064,-0.8541907,-9.199121,0.9391256,-0.57161564,-0.0057256273,-0.02063889,-6.657706E-4,13.8571931,100.53347997,-22.30596923828125
1644885858372,139.28125,-0.75,-88.984375,8.493751,-43.3875,51.16875,-0.26211834,-0.84364676,2.0744684,-10.152613,-0.9864111,1.311424,0.037948925,-0.022769356,-0.037948925,13.8571931,100.53347997,-22.30596923828125
1644885858472,139.48438,-0.59375,-89.140625,6.95625,-44.268753,49.350002,1.9819231,1.8071795,1.0017444,-9.625888,-0.8475474,-3.2213984,-0.043008782,0.05925359,-0.029427063,13.8571931,100.53347997,-22.30596923828125
1644885858581,139.54688,-0.53125,-89.0625,7.18125,-43.800003,48.393753,-1.4022589,-1.294278,1.5974207,-8.619724,-1.5616181,-1.2425907,0.08162348,-0.18681525,0.03768262,13.8571931,100.53347997,-22.30596923828125
1644885858682,139.76562,-0.296875,-89.046875,8.53125,-43.143753,50.2125,1.8581562,-0.48744422,1.0340428,-8.0684595,-3.50152,-1.2090719,-0.17616291,-0.11544463,0.07603101,13.8571931,100.53347997,-22.30596923828125
1644885858790,139.90625,-0.15625,-89.140625,7.18125,-42.91875,49.631252,4.0218234,-0.6280665,-3.259281,-4.3939586,-1.858499,-0.092775315,-0.21251398,0.114645705,0.057922047,13.8571931,100.53347997,-22.30596923828125
1644885858894,140.28125,0.125,-89.359375,7.2937503,-40.350002,48.768753,2.7215376,-2.4274604,1.5701196,-6.597821,-3.0753522,0.47285482,0.054992653,-0.04940018,0.028095521,13.8571931,100.53347997,-22.30596923828125
1644885858995,140.26562,0.171875,-89.296875,5.4375,-40.65,49.575,0.3867464,0.27122286,-1.3275473,-10.348937,-1.9973627,-0.7200562,-0.12503172,0.107189074,0.05579158,13.8571931,100.53347997,-22.30596923828125
1644885859104,140.17188,0.140625,-89.328125,7.5000005,-42.35625,46.912502,-1.8885431,2.3871102,-0.47382116,-9.913192,2.4534583,-1.496376,-0.024899822,-0.20385897,0.03768262,13.8571931,100.53347997,-22.30596923828125
1644885859200,140.375,0.171875,-89.34375,6.7875004,-43.143753,49.800003,-0.5816612,0.9966999,-1.5412095,-10.176555,2.2667105,1.0187328,-0.027030287,0.032622762,-0.012383334,13.8570617,100.53348054,-23.15655517578125
1644885859302,140.17188,0.078125,-89.328125,6.7125,-43.8375,45.16875,0.35124874,-0.34699792,0.628021,-9.357738,0.3549404,1.929128,0.07310162,-0.039813083,-0.034753226,13.8570617,100.53348054,-23.15655517578125
1644885859409,140.20312,0.046875,-89.28125,12.225,-44.737503,43.5,1.1618156,0.7902572,-1.0736783,-11.2928505,0.56563014,-1.745373,0.008122402,0.22862564,-0.07310162,13.8570617,100.53348054,-23.15655517578125
1644885859512,140.4375,0.109375,-89.296875,14.45625,-43.537502,46.0875,2.3307204,-0.7260201,1.2828028,-9.975441,-2.0548236,-0.31783026,0.05605789,0.253126,-0.04540556,13.8570617,100.53348054,-23.15655517578125
1644885859615,140.54688,0.046875,-89.0625,14.325001,-42.9,47.756252,2.2657375,-0.14644244,1.203584,-8.930971,-0.45489833,0.33877954,0.09973244,0.06777545,-0.032622762,13.8570617,100.53348054,-23.15655517578125
1644885859724,140.78125,0.15625,-89.140625,15.187501,-42.075,48.187504,2.0677276,1.3471441,0.9520273,-8.509591,0.52732295,0.15143326,-0.03768262,-0.019573657,0.044074018,13.8570617,100.53348054,-23.15655517578125
1644885859827,140.92188,0.1875,-89.453125,16.425001,-43.256252,47.90625,-0.12017918,0.38180456,-0.90087396,-8.696339,1.0163386,-0.044891283,-0.013182258,-0.07390054,0.019573657,13.8570617,100.53348054,-23.15655517578125
1644885859927,141.10938,0.15625,-89.578125,14.700001,-41.15625,48.506252,0.88723755,1.1331419,-1.236073,-8.404246,1.198298,0.48722005,-0.023834588,0.09547151,0.0014646954,13.8570617,100.53348054,-23.15655517578125
1644885860030,141.125,0.09375,-89.390625,14.306251,-41.41875,48.318752,1.7219834,-0.027205002,0.72203577,-9.879673,0.7188591,-0.6817489,0.12529804,0.17642923,-0.04540556,13.8570617,100.53348054,-23.15655517578125
1644885860131,141.09375,-0.046875,-89.046875,14.94375,-42.487503,50.925003,0.06203842,0.89422476,-1.7829039,-9.213487,0.88645315,0.2861071,-0.061117746,0.08055825,-0.007057169,13.8570617,100.53348054,-23.15655517578125
1644885860237,141.15625,-0.109375,-88.96875,10.14375,-42.80625,51.375004,-1.3249788,0.09701019,-1.2382153,-8.605359,0.56563014,0.23343466,-0.032356452,-0.0856181,0.061117746,13.8569262,100.53348058,-23.684722900390625
1644885860337,140.59375,-179.1875,-88.921875,10.950001,-43.331253,48.15,-1.3924904,2.6728837,-0.22297284,-11.599907,2.190096,-0.9451111,-0.08455287,-0.10585753,0.0046603945,13.8569262,100.53348058,-23.684722900390625
1644885860439,140.6875,-179.1875,-88.921875,12.093751,-43.0125,47.90625,-0.117482185,1.0999603,-1.1750686,-10.430939,1.2797008,-1.0079589,0.027296597,0.062449288,-0.026231363,13.8569262,100.53348058,-23.684722900390625
1644885860543,140.875,-179.25,-88.953125,15.262501,-41.41875,48.80625,-1.2512999,-0.054315772,-0.9104079,-10.0903635,0.9828198,0.8559271,0.009187635,-0.013182258,-6.657706E-4,13.8569262,100.53348058,-23.684722900390625
1644885860647,140.9375,-179.23438,-88.921875,12.243751,-41.456253,52.031254,-0.50468254,0.0045330776,0.23245554,-8.792108,0.014963761,0.49200845,-0.014247492,-0.062182978,0.013182258,13.8569262,100.53348058,-23.684722900390625
1644885860749,141.15625,-179.29688,-88.921875,9.375,-42.65625,49.256252,0.42745304,-0.541531,-2.1927063,-8.720282,-2.7880478,-2.8233624,-0.13248836,-0.027030287,0.05898728,13.8569262,100.53348058,-23.684722900390625
1644885860854,141.25,-179.3125,-88.96875,10.856251,-42.412502,47.34375,0.20646477,-0.6461133,0.85213715,-9.074623,0.26874915,2.010531,0.051796954,0.037948925,-0.03155753,13.8569262,100.53348058,-23.684722900390625
1644885860959,141.35938,-179.34375,-89.015625,13.51875,-42.412502,47.268753,-1.6348724,0.44139045,0.9643257,-11.767501,-1.2689269,-2.5983074,-0.0920095,-0.12609696,0.062182978,13.8569262,100.53348058,-23.684722900390625
1644885861060,141.32812,-179.34375,-89.078125,12.243751,-42.46875,49.65,-2.7154894,-0.49679154,0.97299194,-10.622475,0.46986207,0.59256494,0.05712312,-0.12929265,0.02063889,13.8569262,100.53348058,-23.684722900390625
1644885861164,141.42188,-179.42188,-89.0,10.1625,-43.0125,50.30625,-0.90826607,1.7116883,-1.9395648,-9.759963,2.5013423,-0.035314474,-0.05366111,-0.019573657,-0.012383334,13.8569262,100.53348058,-23.684722900390625
1644885861272,141.40625,-179.45312,-88.96875,10.387501,-42.075,48.468754,1.4106321,-0.5633942,-0.17835018,-9.189545,-1.5664065,-1.9129672,-0.06005251,-0.03129122,0.007856093,13.85679024,100.53347548,-23.4813232421875
1644885861373,141.42188,-179.45312,-88.96875,11.08125,-42.65625,47.71875,0.6056652,-0.44014728,0.97679806,-8.112154,-1.067814,1.8668787,-0.044074018,-0.021704122,0.04513925,13.85679024,100.53347548,-23.4813232421875
1644885861473,141.39062,-179.46875,-88.96875,12.3,-41.850002,47.68125,0.08073807,-0.263554,-1.2310574,-8.81605,-0.47405192,-0.025737667,-0.10053137,0.023035664,0.04194355,13.85679024,100.53347548,-23.4813232421875
1644885861576,142.89062,179.01562,-87.71875,13.687501,-43.125,48.300003,-1.1754389,-0.08180956,-1.6929631,-7.1634517,1.4425066,1.210269,0.0017310036,-0.0984009,0.027030287,13.85679024,100.53347548,-23.4813232421875
1644885861679,142.84375,179.0625,-87.734375,14.137501,-43.256252,50.9625,-0.13162422,0.8825899,-0.66581607,-10.78528,1.4520833,-1.1228806,0.036883693,0.0177095,-0.07523208,13.85679024,100.53347548,-23.4813232421875
1644885861783,142.73438,179.15625,-87.828125,8.025001,-44.625,54.05625,1.7071342,0.05761595,0.49215892,-11.911154,-0.4213795,-1.7980455,0.04966649,0.17855969,-0.054992653,13.85679024,100.53347548,-23.4813232421875
1644885861883,141.8125,-179.90625,-88.734375,6.76875,-44.193752,50.5875,2.4282913,-2.5090258,-0.28112933,-7.872135,-0.44532153,0.51116204,0.22542994,0.24460414,-0.11358047,13.85679024,100.53347548,-23.4813232421875
1644885861989,141.90625,180.0,-88.6875,5.9437504,-43.6875,52.800003,-0.72451496,0.30162972,1.4865403,-12.874221,1.1456255,0.2861071,0.13914606,0.14447223,-0.10505861,13.85679024,100.53347548,-23.4813232421875
1644885862090,142.0625,179.90625,-88.65625,4.21875,-40.40625,50.49375,2.0763636,-1.7813362,1.1654807,-9.227852,-1.6956934,1.9003977,0.037948925,0.1657769,-0.04860126,13.85679024,100.53347548,-23.4813232421875
1644885862194,142.125,179.84375,-88.765625,4.5,-36.112503,50.081253,0.09385967,1.0263149,-0.88048184,-9.855731,1.2366052,-7.671621,0.02516613,-0.07816147,0.0046603945,13.85665071,100.53347054,-23.6488037109375
1644885862294,142.23438,179.76562,-88.796875,2.3625002,-31.500002,50.718754,-1.0838737,-1.6709892,-5.0624967,-11.925519,-0.30166942,-4.2078094,0.16790736,0.077362545,-0.13914606,13.85665071,100.53347054,-23.6488037109375
1644885862402,142.34375,179.70312,-88.75,-3.3187501,-24.206251,49.575,0.67549324,-0.82355756,1.6587787,-11.2449665,-1.3030443,3.3039982,-0.0046603945,0.04220986,-0.054992653,13.85665071,100.53347054,-23.6488037109375
1644885862504,142.26562,179.76562,-88.578125,-1.575,-21.243752,45.65625,-0.21007633,0.62682194,3.2177331,-10.646417,0.56084174,1.2150574,0.13914606,-0.05685681,-0.04220986,13.85665071,100.53347054,-23.6488037109375
1644885862605,142.40625,179.73438,-88.4375,0.975,-20.493752,43.706253,-0.5013437,-0.7639209,-2.9144433,-7.8865004,1.3084313,-0.66738373,0.03155753,0.024100898,-0.03581846,13.85665071,100.53347054,-23.6488037109375
1644885862708,142.53125,179.65625,-88.875,4.6875,-22.181252,46.2,0.6469908,0.7729326,1.973626,-10.555437,-0.4357447,-0.11671733,-0.03129122,0.033687994,-0.0038614697,13.85665071,100.53347054,-23.6488037109375
1644885862813,142.51562,179.625,-88.921875,1.3312501,-22.706251,48.187504,-1.0792656,-1.5329583,0.037180126,-10.66557,-1.858499,-0.30346507,0.03901416,-0.030225987,0.00998656,13.85665071,100.53347054,-23.6488037109375
1644885862916,142.54688,179.57812,-88.875,0.76875,-24.300001,47.006252,-0.04173851,1.1353896,0.35508674,-8.916606,-0.7469909,-0.3369839,-0.088813804,-0.10905323,0.04513925,13.85665071,100.53347054,-23.6488037109375
1644885863016,142.60938,179.54688,-88.765625,3.6750002,-27.2625,46.425003,-0.17774963,0.53003716,-0.17056091,-8.590994,0.86729956,1.5173253,-0.050465416,-0.028095521,0.057922047,13.85665071,100.53347054,-23.6488037109375
1644885863123,142.6875,179.5,-88.65625,5.9812503,-33.16875,49.575,0.18745708,1.3222865,1.5046085,-8.413823,0.6087258,1.4454993,-0.03129122,-0.05259588,0.05366111,13.85665071,100.53347054,-23.6488037109375
1644885863217,142.29688,179.95312,-89.03125,3.6562502,-34.29375,54.45,-1.438899,1.9701933,1.7633486,-12.107478,1.5382746,-0.14544775,0.0177095,-0.12183603,0.024899822,13.85651086,100.533464,-24.211090087890625
1644885863324,142.125,-179.89062,-89.765625,-3.4687502,-34.93125,52.893753,-0.0041561127,1.8464224,0.8541334,-11.839328,-1.0486604,-3.3650506,-0.1015966,0.007057169,0.074965775,13.85651086,100.533464,-24.211090087890625
1644885863425,142.1875,-179.82812,-89.71875,-3.54375,-36.46875,48.15,-0.2688408,0.33747676,-1.2543828,-9.836577,-0.45968673,-0.54767364,-0.04194355,0.032622762,0.039813083,13.85651086,100.533464,-24.211090087890625
1644885863533,141.625,-179.15625,-89.03125,-6.3375,-35.30625,49.218754,-0.89080334,0.77260864,-0.8638387,-9.645041,0.5943606,-0.19812019,-0.04513925,-0.050465416,0.04940018,13.85651086,100.533464,-24.211090087890625
1644885863635,141.35938,-1.203125,-88.796875,-7.70625,-30.675001,44.90625,-2.0154896,0.423049,0.6128885,-12.740146,-0.30166942,-1.2282255,-0.007856093,-0.12396649,0.04833495,13.85651086,100.533464,-24.211090087890625
1644885863740,141.42188,-178.70312,-88.6875,-2.30625,-30.825,39.3375,-2.1842527,0.60656834,-1.2681369,-11.063007,1.8543092,1.2294226,6.657706E-4,0.061384052,-0.018774733,13.85651086,100.533464,-24.211090087890625
1644885863843,141.0,-1.859375,-88.09375,8.38125,-32.30625,44.081253,3.745638,-0.47693738,-0.48665255,-8.082825,0.05327099,-3.1681273,0.20625575,0.1178414,-0.08375394,13.85651086,100.533464,-24.211090087890625
1644885863942,141.20312,-1.796875,-88.1875,6.3375,-33.506252,50.006252,1.764658,0.6577306,4.886586,-7.5321584,2.0219033,5.5461683,0.06671022,-0.089879036,-0.010252868,13.85651086,100.533464,-24.211090087890625
1644885864046,141.71875,-178.5625,-88.4375,2.7,-37.893753,52.050003,-0.8455086,1.0513864,-0.39567518,-11.920731,-0.12868834,-0.705691,-0.06857438,0.05605789,0.008921326,13.85651086,100.533464,-24.211090087890625
1644885864148,141.84375,-178.51562,-88.4375,-1.0125,-39.506252,51.093754,-2.3178701,-0.09013739,-0.92991674,-12.7257805,0.28790274,-2.2343888,0.062449288,0.05925359,-0.007057169,13.85651086,100.533464,-24.211090087890625
1644885864254,141.875,-178.46875,-88.4375,0.43125,-39.73125,46.4625,0.6709614,1.234777,-0.07197103,-9.045893,0.14903906,0.59735334,-0.1015966,0.02516613,-0.008122402,13.8563695,100.53345529,-24.657012939453125
1644885864352,141.98438,-178.4375,-88.4375,2.15625,-39.15,47.943752,-1.0070429,-0.57364935,-0.009691641,-9.38168,0.24959552,0.40581718,0.044340324,-0.08455287,0.011051793,13.8563695,100.53345529,-24.657012939453125
1644885864458,142.14062,-178.48438,-88.46875,1.725,-38.756252,47.756252,-0.06930256,0.01629507,0.22166555,-8.447342,0.3309984,1.881244,-0.023834588,-0.08029194,-0.0059919357,13.8563695,100.53345529,-24.657012939453125
1644885864558,142.3125,-178.57812,-88.515625,0.88125,-38.737503,46.575,-1.1112518,0.5302028,-0.12054534,-10.430939,0.23044191,1.1145009,-0.07070484,-0.007856093,0.04833495,13.8563695,100.53345529,-24.657012939453125
1644885864665,142.59375,-178.75,-88.625,2.0812502,-38.8875,45.45,-0.32731152,2.2576745,-0.5388061,-9.506178,1.0690111,-1.7741034,-0.07390054,-0.054726347,0.05366111,13.8563695,100.53345529,-24.657012939453125
1644885864768,142.67188,-178.79688,-88.703125,5.2125,-38.90625,44.756252,0.035307884,1.0533211,1.295183,-9.951499,0.623091,0.80325466,-0.028095521,-0.12290126,0.017443191,13.8563695,100.53345529,-24.657012939453125
1644885864874,142.70312,-178.78125,-88.734375,6.4687505,-38.550003,46.143753,1.8697219,1.6791966,0.28332287,-10.579379,0.019752163,-3.8055837,-0.036617383,-0.0035951615,-0.030492295,13.8563695,100.53345529,-24.657012939453125
1644885864975,143.51562,-0.546875,-89.453125,5.2312503,-40.0125,46.425003,-1.2455873,-0.72362477,-1.5174916,-8.988432,1.4664485,1.5699978,0.05392742,0.032622762,-0.036883693,13.8563695,100.53345529,-24.657012939453125
1644885865083,143.48438,-179.40625,-89.125,5.625,-39.80625,45.825,-1.9424944,1.3618288,-0.4458276,-12.615647,1.5047557,-2.0907366,0.009187635,0.03155753,0.007856093,13.8563695,100.53345529,-24.657012939453125
1644885865186,143.3125,-179.21875,-88.859375,5.3250003,-38.9625,45.61875,-1.9788666,1.473432,-1.3143407,-11.474811,1.6819267,0.050876785,-0.03768262,0.028361829,0.021704122,13.85622606,100.53344368,-24.7877197265625
1644885865285,144.75,179.42188,-89.3125,5.55,-39.600002,45.768753,-2.8488674,0.011474556,0.112823755,-12.212823,1.6436194,1.8716671,0.054992653,-0.043008782,-0.0059919357,13.85622606,100.53344368,-24.7877197265625
1644885865390,144.5625,179.625,-89.625,5.4750004,-40.143753,44.831253,-2.7622385,1.1428097,1.2913193,-12.078748,0.6805518,0.23822308,-0.06857438,-0.0984009,0.051530648,13.85622606,100.53344368,-24.7877197265625
1644885865492,144.64062,179.60938,-89.609375,7.425,-40.125,45.73125,-1.3096628,0.80377114,0.5990625,-10.085575,-0.2681506,-1.1324574,-0.10905323,-0.07816147,0.08668334,13.85622606,100.53344368,-24.7877197265625
1644885865600,144.6875,179.5625,-89.5625,6.0937505,-40.518753,46.48125,1.1730051,-0.6278333,-0.5529453,-7.2448545,-0.521936,-0.27473465,-0.016377958,-0.06644391,0.015312725,13.85622606,100.53344368,-24.7877197265625
1644885865702,144.51562,0.359375,-89.640625,5.11875,-39.487503,46.93125,1.3555441,-0.55820864,0.38794345,-7.5944076,-0.6560113,0.7793127,0.0017310036,0.007057169,0.016377958,13.85622606,100.53344368,-24.7877197265625
1644885865805,144.54688,179.64062,-89.625,5.0625,-37.725002,44.662502,1.1734953,-0.6268655,0.66954696,-7.9152308,-0.92895025,-0.23642741,-0.019573657,-0.1047923,-0.0145138,13.85622606,100.53344368,-24.7877197265625
1644885865911,144.4375,179.6875,-89.640625,6.0375004,-38.15625,45.35625,1.6649818,0.11388004,0.3680521,-9.534908,-1.9063832,-1.7310078,-0.0856181,-0.019573657,0.00998656,13.85622606,100.53344368,-24.7877197265625
1644885866019,144.42188,179.6875,-89.671875,6.39375,-40.40625,46.18125,3.5096693,0.72574836,2.1423085,-11.504139,-1.9446903,-2.6557682,-0.054726347,0.17323352,-0.03581846,13.85622606,100.53344368,-24.7877197265625
1644885866118,144.375,0.390625,-89.53125,6.7875004,-40.425003,45.825,-0.051950455,-1.92203,0.8697751,-12.34211,-3.3291376,-1.9369092,0.015579033,0.09227581,0.011051793,13.85622606,100.53344368,-24.7877197265625
1644885866218,144.42188,0.515625,-89.296875,6.8250003,-41.15625,46.78125,-2.3611555,-1.078994,0.67598915,-10.493188,-0.39264908,1.6944963,0.08694965,0.0027962367,0.043008782,13.85607952,100.53343689,-25.319793701171875
1644885866322,144.32812,0.515625,-89.09375,6.7312503,-42.09375,46.29375,-2.446909,-0.021077767,-0.92741895,-10.761338,0.65660983,0.32441434,-0.03874785,-0.07390054,0.014247492,13.85607952,100.53343689,-25.319793701171875
1644885866425,144.20312,0.484375,-89.09375,6.76875,-41.456253,45.318752,-2.2776585,0.39804682,0.5074362,-12.227188,0.24959552,1.775899,-0.0792267,-0.04833495,0.03448692,13.85607952,100.53343689,-25.319793701171875
1644885866528,143.90625,0.34375,-89.34375,7.65,-42.300003,46.256252,-0.64565086,-0.15306956,0.491281,-10.780492,0.32621,0.81761986,0.02516613,0.050731722,-0.023035664,13.85607952,100.53343689,-25.319793701171875
1644885866631,143.79688,0.28125,-89.515625,8.85,-43.537502,46.256252,0.46277714,0.32106438,1.3224111,-7.9487495,0.38845924,0.45848963,-0.03874785,-0.089879036,0.021704122,13.85607952,100.53343689,-25.319793701171875
1644885866734,143.51562,0.15625,-89.6875,10.125,-43.893753,46.95,0.11028099,-0.79556906,0.84407985,-9.179968,-0.38307226,0.91338795,0.026231363,-0.05898728,-0.020905199,13.85607952,100.53343689,-25.319793701171875
1644885866840,143.45312,0.125,-89.859375,10.743751,-44.081253,48.73125,0.56047916,0.9862479,1.1614721,-11.297639,-0.91937345,-0.5907693,-0.117575094,0.10399337,0.013182258,13.85607952,100.53343689,-25.319793701171875
1644885866943,143.3125,179.89062,-89.828125,8.90625,-43.3875,49.2,-0.21710587,-0.33941442,0.7587457,-9.227852,-0.11911154,2.5378537,-0.028095521,6.657706E-4,0.011051793,13.85607952,100.53343689,-25.319793701171875
1644885867045,143.17188,179.9375,-89.75,8.400001,-45.075,49.706253,-0.23544979,-0.7380015,0.33825535,-9.400833,-1.0965444,0.6787562,-0.06644391,0.008122402,0.03129122,13.85607952,100.53343689,-25.319793701171875
1644885867144,143.0,0.03125,-88.953125,7.6312504,-43.59375,48.787502,-1.2933521,-0.28760052,1.7754308,-10.723031,-1.7435774,-0.56203884,-0.050465416,-0.1207708,0.07603101,13.85607952,100.53343689,-25.319793701171875
1644885867246,143.46875,0.53125,-88.5625,7.18125,-44.568752,48.862503,-0.79575634,0.7848248,1.7733715,-10.598533,-0.04249708,0.5781997,-0.050465416,-0.011051793,0.03448692,13.85593623,100.5334273,-24.8916015625
1644885867349,143.65625,0.875,-86.828125,5.86875,-42.9375,47.98125,-0.27616692,0.1648106,-1.5535172,-8.160038,0.7092823,0.9900024,-0.04194355,-0.008921326,0.022769356,13.85593623,100.5334273,-24.8916015625
1644885867455,143.59375,0.890625,-87.140625,6.8250003,-42.5625,47.268753,-0.11708546,-0.2732482,0.53609633,-10.243592,-0.320823,0.48722005,0.0059919357,0.037948925,0.021704122,13.85593623,100.5334273,-24.8916015625
1644885867556,143.53125,0.875,-87.375,6.7312503,-43.3875,46.893753,-0.25282288,0.12792467,1.1575215,-11.063007,-0.11432313,0.89902276,-0.0035951615,0.04966649,-0.020905199,13.85593623,100.5334273,-24.8916015625
1644885867656,143.26562,0.734375,-87.640625,6.675,-42.99375,47.68125,0.016278267,-0.20718858,1.1104634,-10.4883995,-0.6464345,-0.3226187,-0.0057256273,-0.033421688,0.016377958,13.85593623,100.5334273,-24.8916015625
1644885867761,143.125,0.640625,-87.71875,7.70625,-44.04375,47.53125,0.27003288,-0.9666882,-0.08332661,-8.959702,-1.067814,-0.7727286,-0.0067908606,-0.033421688,-0.0059919357,13.85593623,100.5334273,-24.8916015625
1644885867865,142.98438,0.59375,-87.828125,7.1250005,-43.29375,48.093754,0.4098587,-0.86744404,-0.2848645,-8.432977,-0.7038953,0.026934769,-0.024899822,0.04220986,-0.009187635,13.85593623,100.5334273,-24.8916015625
1644885867969,142.89062,0.578125,-88.875,6.05625,-43.875,47.568752,0.3074522,-1.661447,0.63866395,-8.010999,-0.93373865,2.0153193,0.04220986,0.032622762,-0.030492295,13.85593623,100.5334273,-24.8916015625
1644885868074,143.17188,0.953125,-88.890625,8.868751,-45.09375,45.84375,1.3148985,-1.9364504,-1.2543769,-7.3645644,-1.7483658,0.22385786,-0.017443191,0.03901416,-0.007057169,13.85593623,100.5334273,-24.8916015625
1644885868179,142.75,0.59375,-89.03125,11.2875,-44.9625,46.40625,0.70865154,-1.0665772,0.109334074,-8.710705,-1.2785037,-0.28909984,-0.00998656,-0.044074018,-0.0038614697,13.85579872,100.53342735,-26.28643798828125
1644885868281,144.0,1.953125,-87.9375,11.231251,-44.568752,49.406254,-0.75933266,-0.44782037,-0.18082152,-8.495226,-1.6430209,1.0570401,-0.06324821,-0.07070484,0.05259588,13.85579872,100.53342735,-26.28643798828125
1644885868387,143.96875,1.96875,-87.96875,9.8625,-45.35625,49.443752,-1.5894194,-0.5522136,0.16981572,-10.454881,-0.21068975,1.4694413,-0.008921326,-0.011051793,0.0025299285,13.85579872,100.53342735,-26.28643798828125
1644885868485,144.03125,2.078125,-87.875,8.475,-45.54375,51.037502,-0.8302765,-1.3924793,-0.8743894,-9.53012,-0.24899697,2.1733365,0.004926703,0.10612384,-0.020905199,13.85579872,100.53342735,-26.28643798828125
1644885868587,143.85938,2.0625,-87.859375,5.34375,-44.79375,51.15,1.048049,-0.6094817,0.24653406,-9.664195,-0.36870706,-0.26036942,0.064579755,0.079493016,-0.05605789,13.85579872,100.53342735,-26.28643798828125
1644885868690,143.85938,2.109375,-87.859375,3.2625,-45.09375,49.312504,0.013763428,-0.74595094,0.5068867,-9.367314,0.02932897,2.3600843,0.004926703,0.10931954,-0.029427063,13.85579872,100.53342735,-26.28643798828125
1644885868796,143.76562,2.0625,-87.9375,5.08125,-45.075,47.79375,0.52729225,0.33146042,0.3319059,-9.601946,0.997185,1.5173253,-0.012117025,0.05925359,0.029160755,13.85579872,100.53342735,-26.28643798828125
1644885868905,143.73438,177.95312,-87.953125,4.5750003,-42.506252,48.075,1.0825539,-2.1313026,2.8463204,-7.7189064,-0.7278373,1.359308,0.13168943,-0.074965775,-0.007057169,13.85579872,100.53342735,-26.28643798828125
1644885869007,143.46875,1.921875,-88.078125,5.8500004,-43.7625,49.425003,1.1026459,1.046832,0.22051015,-11.082161,0.15382746,1.2054806,-0.08668334,0.108254306,-6.657706E-4,13.85579872,100.53342735,-26.28643798828125
1644885869109,143.29688,178.23438,-88.234375,6.15,-44.662502,50.025,0.9067936,-1.9742378,2.8212802,-6.8228765,0.09636662,5.177461,0.16045073,-0.067509145,0.013182258,13.85579872,100.53342735,-26.28643798828125
1644885869210,143.0625,178.375,-88.359375,5.5875,-43.631252,50.11875,0.88606644,-1.7322388,1.4060848,-8.830415,0.29747957,0.0796072,0.18814678,-0.0014646954,-0.08055825,13.8556626,100.53342389,-25.520751953125
1644885869314,142.84375,178.625,-88.625,5.25,-43.2,50.025,0.13270283,0.29033765,-2.284651,-8.777742,0.86729956,2.5139117,-0.107988,0.13595037,-0.013448567,13.8556626,100.53342389,-25.520751953125
1644885869413,142.71875,1.265625,-88.734375,4.5375004,-43.518753,49.893753,-1.3847389,-1.3061923,0.8321136,-9.5971575,-2.203264,1.9099745,-0.033421688,-0.025965055,0.00998656,13.8556626,100.53342389,-25.520751953125
1644885869521,142.51562,1.15625,-88.84375,4.96875,-43.987503,49.55625,1.5391941,-0.11251785,-1.3205501,-8.0924015,0.83856916,-0.46627077,0.04860126,0.062449288,-0.064579755,13.8556626,100.53342389,-25.520751953125
1644885869620,142.64062,178.78125,-88.78125,5.4375,-43.96875,49.818752,0.8232641,0.64760435,0.47580853,-9.227852,-0.4309563,1.7232267,-0.07709624,-0.016377958,0.03768262,13.8556626,100.53342389,-25.520751953125
1644885869723,143.07812,178.48438,-88.4375,6.4687505,-44.550003,49.65,-0.2571125,0.015672207,1.9524739,-9.463082,0.41240123,0.78888947,0.06884068,-0.14846686,0.062182978,13.8556626,100.53342389,-25.520751953125
1644885869833,141.96875,0.421875,-89.328125,5.2125,-43.725002,49.350002,0.58610344,0.04383812,-0.34418198,-10.737396,-1.3317747,-1.0510546,-0.0856181,0.05286219,0.03768262,13.8556626,100.53342389,-25.520751953125
1644885869936,142.03125,0.5,-89.28125,5.3250003,-43.350002,49.406254,0.2833624,-0.8436022,1.9929783,-9.980229,-0.81402856,1.8668787,0.054992653,0.020905199,3.9946238E-4,13.8556626,100.53342389,-25.520751953125
1644885870043,141.95312,0.390625,-89.203125,5.83125,-44.475002,49.425003,-0.3595276,-0.11760074,-0.88025105,-8.792108,0.52732295,-0.08319851,0.018774733,-0.04620448,0.023834588,13.8556626,100.53342389,-25.520751953125
1644885870141,141.8125,0.25,-88.34375,5.025,-43.5,49.0125,-0.7734566,-0.105108865,-0.37864858,-10.1143055,-0.15263036,0.8750807,-0.04513925,-0.0067908606,0.023834588,13.8556626,100.53342389,-25.520751953125
1644885870249,141.9375,0.296875,-87.390625,4.89375,-43.8375,48.61875,1.3215055,0.26707903,0.25111127,-8.883087,-0.46447513,-1.0223241,-0.027030287,-0.012117025,-0.0017310036,13.85553458,100.53341805,-24.64385986328125
1644885870352,141.84375,0.234375,-87.453125,5.775,-44.15625,49.162502,1.2433558,-0.8077159,-1.2780277,-7.73806,-0.36870706,1.5699978,-0.025965055,0.10612384,-0.008122402,13.85553458,100.53341805,-24.64385986328125
1644885870452,141.82812,0.234375,-87.609375,5.4187503,-43.0125,48.91875,-0.17244911,-0.44758612,0.55735624,-9.793482,0.12030864,2.4947581,-0.011051793,0.03901416,0.0067908606,13.85553458,100.53341805,-24.64385986328125
1644885870557,141.82812,0.28125,-87.765625,5.53125,-43.5,48.99375,3.1474938,-1.3352453,1.9466976,-8.058883,-2.5821466,1.210269,-0.043008782,0.032622762,-0.020905199,13.85553458,100.53341805,-24.64385986328125
1644885870661,141.75,0.296875,-87.734375,5.49375,-44.831253,49.968754,-0.36881638,-0.10222705,0.27215615,-10.852318,0.57520694,-0.8110358,0.040079392,0.012383334,-0.072036386,13.85553458,100.53341805,-24.64385986328125
1644885870768,141.625,0.234375,-87.640625,5.5875,-44.4,49.425003,-0.7223177,0.77368796,-2.230937,-9.803059,0.9876082,-1.2090719,-0.05366111,0.06777545,0.0035951615,13.85553458,100.53341805,-24.64385986328125
1644885870871,141.39062,0.171875,-87.5,5.0437503,-43.350002,48.80625,-1.8889141,-1.2235266,0.38571507,-12.51928,-2.3517046,0.046088383,-0.018508423,-0.014247492,0.04513925,13.85553458,100.53341805,-24.64385986328125
1644885870974,142.0,0.8125,-86.3125,5.64375,-44.53125,49.4625,-0.56583977,0.050013095,2.2526505,-10.378265,-0.60812724,1.234211,-0.03448692,-0.10905323,0.028095521,13.85553458,100.53341805,-24.64385986328125
1644885871075,142.0,0.96875,-86.296875,6.1125,-44.5125,49.031254,-1.1117611,0.32469958,-0.4008727,-9.199121,-0.16280572,-0.38486794,-0.06005251,-0.13994499,0.029160755,13.85553458,100.53341805,-24.64385986328125
1644885871183,142.70312,1.828125,-86.5,5.175,-43.912502,49.537502,0.677454,0.028746463,0.5381496,-9.242816,-0.91937345,0.046088383,-0.07283531,-0.018508423,0.028095521,13.85542282,100.53341616,-24.5450439453125
1644885871285,142.67188,1.921875,-85.90625,4.70625,-43.36875,49.443752,1.7036238,-0.19397491,1.6611637,-9.391256,-1.5999253,-0.11192893,-0.054726347,0.0059919357,-0.011318101,13.85542282,100.53341616,-24.5450439453125
1644885871386,142.34375,1.640625,-85.75,5.08125,-43.03125,49.312504,-0.21867752,-0.6032078,-1.0558281,-8.437765,-0.004189853,1.282095,-0.05898728,-0.015312725,0.0057256273,13.85542282,100.53341616,-24.5450439453125
1644885871490,142.9375,2.53125,-85.59375,4.70625,-43.59375,49.8375,0.6647091,-0.4300835,1.6687508,-9.539697,-0.8523358,0.93732995,-0.012117025,-0.014247492,0.0046603945,13.85542282,100.53341616,-24.5450439453125
1644885871592,142.85938,2.625,-84.953125,4.3875003,-44.0625,49.2,-0.5889158,-0.8479107,0.33749506,-10.205285,-1.1204864,2.7868507,-0.05259588,0.034753226,0.016377958,13.85542282,100.53341616,-24.5450439453125
1644885871696,142.73438,2.703125,-84.65625,4.33125,-44.006252,49.2,-0.27878094,0.97484,0.5997547,-10.986393,1.1121067,-1.1755531,-3.9946238E-4,-0.06324821,-0.0145138,13.85542282,100.53341616,-24.5450439453125
1644885871799,142.51562,2.703125,-84.359375,5.3812504,-43.275,49.350002,-0.064702034,0.7600143,-1.9879738,-10.526707,-0.023343466,-0.3561375,-0.16124965,0.04540556,0.0057256273,13.85542282,100.53341616,-24.5450439453125
1644885871907,141.34375,1.640625,-85.109375,5.5687504,-44.081253,48.375004,-2.901249,-0.06138049,-0.59299743,-10.291476,1.5047557,3.1603463,-0.023834588,-0.06644391,-0.007057169,13.85542282,100.53341616,-24.5450439453125
1644885872007,142.375,2.953125,-84.671875,4.9125004,-44.381252,48.862503,-0.14335918,-0.5551126,0.47668675,-9.783905,0.40282443,1.8764555,0.008122402,0.029427063,-0.037948925,13.85542282,100.53341616,-24.5450439453125
1644885872113,142.6875,3.53125,-84.90625,4.93125,-45.16875,48.075,-0.71805286,0.37592933,1.8762275,-10.703877,0.5943606,-0.6290765,-0.0046603945,-0.08348764,0.0046603945,13.85542282,100.53341616,-24.5450439453125
1644885872222,141.15625,2.03125,-85.875,4.89375,-45.225002,48.675003,1.3482819,0.8182452,-0.69157964,-8.480861,-0.30166942,3.0550013,-0.16231488,0.07523208,0.027030287,13.85531976,100.53342144,-24.624908447265625
1644885872320,141.82812,3.0625,-84.84375,4.9875,-45.525,48.581253,-1.7375107,-0.45934713,1.57314,-9.913192,-0.095169514,1.1192893,0.029427063,-0.1825543,0.04620448,13.85531976,100.53342144,-24.624908447265625
1644885872419,141.42188,2.8125,-84.90625,4.6875,-45.693752,48.468754,0.005604744,0.3054422,-0.8771273,-10.018537,0.56563014,-2.0811598,-0.039813083,-0.027030287,-0.013448567,13.85531976,100.53342144,-24.624908447265625
1644885872526,141.0,2.765625,-85.0,5.4187503,-45.600002,48.956253,-0.06772804,-0.7300892,1.8176104,-11.086949,-1.7244238,0.6691794,-0.044074018,0.0027962367,0.0025299285,13.85531976,100.53342144,-24.624908447265625
1644885872634,140.5625,2.609375,-85.96875,4.89375,-46.350002,49.237503,0.8165121,-1.1680014,-0.6468823,-9.1751795,-1.5280992,-0.025737667,-0.10053137,0.011318101,-0.013448567,13.85531976,100.53342144,-24.624908447265625
1644885872734,140.26562,2.484375,-86.375,5.2312503,-46.612503,48.54375,0.38146496,-0.03291768,-0.42130303,-9.285912,-0.037708677,-0.08319851,-0.032356452,-0.012117025,-0.019839965,13.85531976,100.53342144,-24.624908447265625
1644885872836,140.15625,2.6875,-86.140625,5.08125,-45.9375,49.331253,-0.46971226,-0.33426625,-1.5201598,-9.985018,0.15382746,-0.18854338,-0.054726347,0.050731722,-0.020905199,13.85531976,100.53342144,-24.624908447265625
1644885872937,140.1875,3.03125,-86.234375,4.5,-45.881252,48.487503,0.7692871,0.20812991,1.9233996,-10.1382475,0.32142156,1.1049241,-0.015312725,-0.04620448,-0.018774733,13.85531976,100.53342144,-24.624908447265625
1644885873045,139.98438,3.171875,-86.5625,5.53125,-46.612503,48.6375,0.5769081,0.06697318,-2.0100439,-9.2907,-1.7483658,0.22385786,-0.18894571,0.069905914,0.03129122,13.85531976,100.53342144,-24.624908447265625
1644885873146,139.59375,3.15625,-86.75,6.39375,-47.23125,49.537502,-1.9084787,-2.1889973,-0.2005111,-10.608109,-1.9446903,3.567959,-0.015312725,0.011318101,-0.03155753,13.85531976,100.53342144,-24.624908447265625
1644885873246,139.125,2.859375,-86.96875,5.64375,-46.612503,49.55625,0.048110962,-1.2423604,0.7992007,-9.257181,-1.3652935,-1.055843,0.008122402,-0.09413997,-0.010252868,13.85522559,100.53342434,-24.27398681640625
1644885873347,139.51562,3.65625,-85.828125,5.4375,-47.1375,49.125004,1.5703259,-0.10191065,-0.2481781,-8.318055,-0.9768343,-1.151611,-0.061117746,-0.03129122,-0.0027962367,13.85522559,100.53342434,-24.27398681640625
1644885873454,138.45312,2.84375,-87.0,6.1875005,-46.55625,49.162502,1.8886776,-0.0013896823,1.7750313,-8.020576,-0.7517793,1.3449428,-0.036617383,-0.0046603945,-0.0059919357,13.85522559,100.53342434,-24.27398681640625
1644885873565,138.8125,3.484375,-85.984375,5.34375,-47.11875,49.443752,-0.5953922,0.3519318,-0.0052787364,-11.733982,0.52253455,-0.480636,0.013448567,0.07629731,-0.020905199,13.85522559,100.53342434,-24.27398681640625
1644885873656,137.98438,2.875,-86.109375,5.3812504,-47.081253,49.350002,1.0038519,-0.1704922,-0.5867889,-8.701127,-0.04249708,0.51116204,0.019839965,0.02197043,-0.013448567,13.85522559,100.53342434,-24.27398681640625
1644885873758,137.84375,3.046875,-86.28125,5.9812503,-47.006252,48.750004,0.038075447,-0.5481107,1.0858824,-9.702502,-0.38307226,1.9482816,0.04860126,-0.0025299285,-0.015579033,13.85522559,100.53342434,-24.27398681640625
1644885873860,137.32812,2.734375,-86.515625,5.55,-46.74375,48.768753,1.3984718,0.34592384,-0.23127855,-8.643666,0.09636662,-0.08798691,0.015579033,-0.0014646954,-0.03155753,13.85522559,100.53342434,-24.27398681640625
1644885873962,137.1875,2.71875,-86.515625,5.49375,-46.537502,48.80625,0.43101025,0.752259,-1.7816195,-8.54311,1.0642227,0.23822308,-0.0025299285,0.024100898,-0.023035664,13.85522559,100.53342434,-24.27398681640625
1644885874065,135.54688,1.046875,-87.671875,5.30625,-47.5125,48.9,0.7174816,-0.8474252,1.8613963,-9.850943,-0.37828386,1.929128,0.13914606,0.012383334,-0.044340324,13.85522559,100.53342434,-24.27398681640625
1644885874171,135.5,1.015625,-87.578125,5.6062503,-47.15625,48.881252,0.778944,0.4374917,-1.7884752,-8.830415,0.53689975,-0.020949265,-0.018508423,0.06884068,-0.030492295,13.85522559,100.53342434,-24.27398681640625
1644885874272,135.0625,0.46875,-87.671875,5.4750004,-47.04375,48.9,0.19038105,-0.1364927,1.6130085,-9.855731,-0.4309563,1.4024036,0.06671022,0.0145138,3.9946238E-4,13.85513434,100.53342858,-24.1605224609375
1644885874375,135.45312,0.84375,-87.78125,5.025,-46.706253,48.581253,0.76289845,0.4913482,-1.7237548,-8.087613,0.87687635,-0.05925649,6.657706E-4,0.044340324,-0.016644266,13.85513434,100.53342858,-24.1605224609375
1644885874476,134.71875,-0.046875,-88.078125,5.5875,-46.95,49.537502,-0.14996529,0.7976996,-0.84011567,-11.283274,0.11552023,-0.06404489,-0.017443191,0.09866721,-0.02197043,13.85513434,100.53342858,-24.1605224609375
1644885874580,133.6875,-1.171875,-87.859375,6.24375,-46.3875,49.95,0.03650856,-0.51826274,-0.15062183,-10.1861315,-0.17238252,-0.3513491,0.107189074,0.012383334,-0.040079392,13.85513434,100.53342858,-24.1605224609375
1644885874686,134.98438,0.03125,-88.1875,5.775,-46.4625,48.73125,0.22802544,-0.053026274,0.02011472,-10.023325,-0.0712275,0.961272,0.029427063,0.03155753,-0.047536023,13.85513434,100.53342858,-24.1605224609375
1644885874788,134.01562,-1.109375,-87.1875,7.1250005,-46.78125,49.068752,0.8455982,0.4204201,-0.12796515,-9.621099,0.7092823,-0.3705027,0.05392742,0.05712312,-0.02516613,13.85513434,100.53342858,-24.1605224609375
1644885874892,134.89062,-0.28125,-88.28125,5.7562504,-45.581253,48.581253,-0.20035267,0.15929097,0.048113167,-9.913192,-0.18195933,1.2246342,0.011318101,-3.9946238E-4,-0.010252868,13.85513434,100.53342858,-24.1605224609375
1644885874992,134.71875,-0.640625,-87.328125,6.1875005,-45.487503,49.66875,0.16763306,-0.8735169,0.5537567,-10.004171,-0.320823,0.7745243,0.10505861,0.07310162,-0.018774733,13.85513434,100.53342858,-24.1605224609375
1644885875094,135.03125,-0.390625,-87.0625,5.9625,-46.03125,49.0125,0.41497707,0.7453113,1.9738468,-9.568427,0.3597288,1.2725182,0.040079392,-0.1015966,-0.0059919357,13.85513434,100.53342858,-24.1605224609375
1644885875197,134.625,-0.96875,-87.65625,6.61875,-45.9375,49.425003,-0.6078348,0.96002364,-0.8056574,-8.801684,0.95827925,0.60693014,0.03155753,-0.04833495,0.011051793,13.85505311,100.53343475,-24.459014892578125
1644885875301,134.92188,-0.828125,-87.6875,6.8812504,-45.91875,49.48125,-0.2087698,0.3321035,-1.8908982,-8.854357,0.599149,0.78888947,-0.03874785,0.0059919357,0.0057256273,13.85505311,100.53343475,-24.459014892578125
1644885875406,134.92188,-0.921875,-87.921875,6.43125,-44.5875,49.575,0.6515055,-0.075368464,0.0046515167,-9.827001,-0.94810385,0.50637364,0.012383334,0.04860126,0.008921326,13.85505311,100.53343475,-24.459014892578125
1644885875507,134.1875,-1.84375,-87.78125,6.8812504,-45.84375,49.162502,0.14767075,0.7471482,0.06118056,-10.373477,0.64703304,0.415394,0.02197043,-0.0035951615,-0.020905199,13.85505311,100.53343475,-24.459014892578125
1644885875611,134.875,-1.28125,-88.015625,6.0375004,-44.98125,49.818752,0.6419544,-0.08074424,0.81496155,-9.616311,-1.1971009,0.17058687,-0.013182258,-0.04513925,0.044074018,13.85505311,100.53343475,-24.459014892578125
1644885875717,136.34375,0.109375,-87.921875,5.7562504,-45.506252,49.406254,-1.1051054,0.006589696,-0.27232748,-9.141661,1.1935096,0.78888947,0.06564499,-0.062182978,0.02063889,13.85505311,100.53343475,-24.459014892578125
1644885875820,136.23438,-0.15625,-87.796875,4.8187504,-45.318752,49.66875,0.7873821,0.9299051,0.010033339,-10.052056,0.06284779,-0.88765025,-0.012117025,-0.0046603945,0.022769356,13.85505311,100.53343475,-24.459014892578125
1644885875920,136.35938,-0.125,-87.78125,5.5687504,-45.35625,49.350002,0.63771343,0.13363624,0.6485729,-10.248381,-0.008978256,0.065242,0.019839965,0.033687994,0.03555215,13.85505311,100.53343475,-24.459014892578125
1644885876022,136.34375,-0.28125,-88.515625,6.0375004,-45.862503,48.975002,-0.11544132,0.07395929,1.1026758,-10.842741,-0.16280572,0.25258827,0.040079392,-0.0014646954,0.036617383,13.85505311,100.53343475,-24.459014892578125
1644885876125,136.64062,-0.046875,-88.5,6.24375,-46.425003,50.268753,-0.33401394,0.3664784,-1.2325455,-10.21965,0.66618663,-1.0893618,0.044340324,0.018774733,-0.012383334,13.85505311,100.53343475,-24.459014892578125
1644885876231,137.01562,0.265625,-88.84375,5.3625,-45.825,49.256252,0.85346603,0.49582815,0.5800852,-9.793482,-0.45968673,-0.6386533,-0.04833495,-0.008921326,0.05898728,13.85497374,100.5334368,-24.134246826171875
1644885876330,136.32812,-0.53125,-89.21875,5.64375,-46.068752,49.18125,0.57103443,-0.40544403,-1.5568554,-8.801684,0.32142156,0.93732995,-0.0046603945,0.114645705,0.014247492,13.85497374,100.5334368,-24.134246826171875
1644885876432,135.4375,-1.515625,-88.40625,5.2312503,-46.275,49.687504,0.28838158,-0.38337317,0.7261815,-10.5123415,-0.8762778,0.11791443,0.027296597,0.04860126,-0.020905199,13.85497374,100.5334368,-24.134246826171875
1644885876535,136.32812,-0.671875,-89.125,6.0375004,-45.956253,49.8375,-0.23508453,-0.30815053,0.007825822,-9.050681,0.57520694,1.1575965,0.04327509,-0.027030287,-0.0177095,13.85497374,100.5334368,-24.134246826171875
1644885876644,136.0625,-1.015625,-88.984375,6.4875,-46.725002,49.66875,0.628644,1.3272439,1.4171586,-11.11568,0.14903906,-1.5586253,0.034753226,-0.04833495,-0.012383334,13.85497374,100.5334368,-24.134246826171875
1644885876743,136.15625,-1.078125,-88.65625,6.20625,-45.956253,49.631252,-0.13823223,0.14343052,0.88435555,-11.187506,0.8194155,1.6178818,0.047536023,0.08801488,-0.06671022,13.85497374,100.5334368,-24.134246826171875
1644885876844,135.09375,-2.203125,-87.78125,6.2625003,-46.0125,49.162502,-0.47762585,-0.09322789,0.47537145,-10.933721,0.11552023,-0.12150574,0.047536023,0.02516613,0.028095521,13.85497374,100.5334368,-24.134246826171875
1644885876943,134.79688,-2.734375,-87.203125,6.3,-45.84375,49.875004,0.29733086,0.15915284,0.100486964,-9.165603,1.0977415,0.8511387,0.077362545,-0.011051793,0.007856093,13.85497374,100.5334368,-24.134246826171875
1644885877045,135.0,-2.671875,-87.0,5.55,-45.412502,50.081253,-0.17222977,0.34390154,-1.2325312,-9.424775,1.0785879,0.8655039,0.010252868,0.029427063,-0.0038614697,13.85497374,100.5334368,-24.134246826171875
1644885877150,135.17188,-2.71875,-87.046875,5.7000003,-46.425003,48.862503,-0.50812435,-0.2948992,2.6008348,-12.064383,-1.1587936,-0.20290859,0.05712312,-0.025965055,0.012117025,13.85497374,100.5334368,-24.134246826171875
1644885877257,135.51562,-2.53125,-86.71875,6.1125,-45.2625,49.912502,-0.77539635,-0.367403,-2.958229,-8.500014,0.9828198,1.4598645,-0.03448692,0.047536023,0.032356452,13.85490047,100.53343831,-23.573455810546875
1644885877357,135.65625,-2.515625,-86.765625,6.01875,-44.775,48.61875,-0.5194378,0.4064199,1.8817441,-10.761338,0.4842273,1.3736732,0.036883693,-0.050465416,-0.0059919357,13.85490047,100.53343831,-23.573455810546875
1644885877457,136.48438,-1.84375,-86.90625,5.5125003,-44.90625,49.443752,0.56111336,0.43006077,0.53218794,-9.946711,0.40761283,-0.25079262,0.047536023,0.012383334,0.013182258,13.85490047,100.53343831,-23.573455810546875
1644885877559,137.09375,-1.34375,-86.65625,5.2875004,-43.612503,48.675003,-0.08129978,0.06726979,-0.7949014,-9.419987,0.599149,1.7184383,-0.04087832,0.05925359,0.019573657,13.85490047,100.53343831,-23.573455810546875
1644885877669,137.10938,-1.46875,-86.625,5.5125003,-44.475002,48.375004,-0.5969906,-0.33540756,0.57775724,-11.072584,0.11552023,0.04129998,0.047536023,0.010252868,0.007856093,13.85490047,100.53343831,-23.573455810546875
1644885877765,137.53125,-1.046875,-86.53125,5.2875004,-43.443752,48.300003,0.32291126,-0.088358074,-0.53454673,-9.855731,0.8194155,-0.825401,0.050731722,0.04647079,-0.0027962367,13.85490047,100.53343831,-23.573455810546875
1644885877870,137.82812,-0.8125,-86.65625,4.8562503,-44.737503,49.218754,0.1896429,0.69067776,-0.89989483,-9.874885,0.40282443,-0.5093664,-0.044074018,0.012383334,0.015312725,13.85490047,100.53343831,-23.573455810546875
1644885877971,137.23438,-1.53125,-85.796875,5.3812504,-44.550003,49.48125,-1.4094496,-0.69175065,0.084367454,-9.5971575,0.4890157,1.5987282,0.040079392,-0.03129122,0.036617383,13.85490047,100.53343831,-23.573455810546875
1644885878073,138.20312,-0.578125,-87.109375,4.3500004,-44.7,49.55625,0.20840263,-0.37799144,-1.5640423,-8.198345,0.47465047,0.664391,-0.033421688,-0.012117025,0.013182258,13.85490047,100.53343831,-23.573455810546875
1644885878177,136.79688,-2.09375,-87.15625,5.0062504,-44.8125,50.156254,0.39526272,0.06703833,0.18754685,-9.865308,-0.18195933,-1.1420342,0.009187635,-0.011051793,0.014247492,13.85490047,100.53343831,-23.573455810546875
1644885878282,136.98438,-1.96875,-87.75,4.4437504,-44.831253,49.8375,0.3694315,-0.015835881,0.8288516,-10.406996,-0.50757074,1.0761937,-0.008921326,0.04327509,0.0035951615,13.8548356,100.53344045,-22.97149658203125
1644885878384,137.45312,-1.546875,-88.40625,5.26875,-45.2625,50.04375,0.45400715,-0.73350406,-0.43386096,-8.974067,0.40282443,0.79367787,0.05925359,0.009187635,-0.010252868,13.8548356,100.53344045,-22.97149658203125
1644885878485,137.34375,-1.734375,-88.21875,5.1375003,-44.68125,48.73125,-0.1736145,0.117652595,-0.43328068,-9.76954,0.56563014,-0.6194997,0.03155753,-0.06005251,-0.007057169,13.8548356,100.53344045,-22.97149658203125
1644885878589,137.09375,-1.984375,-88.015625,5.7562504,-45.0,49.4625,-0.585598,0.79973876,-1.2553189,-9.764751,0.5129577,-0.24121583,-0.0792267,-0.06963961,0.0014646954,13.8548356,100.53344045,-22.97149658203125
1644885878693,137.35938,-178.15625,-87.734375,5.5875,-44.550003,49.10625,0.7271204,0.58722985,0.59878445,-10.018537,-0.35913026,-1.3718776,-0.015312725,-0.008921326,-0.0145138,13.8548356,100.53344045,-22.97149658203125
1644885878794,137.35938,-178.14062,-87.671875,4.875,-45.16875,49.443752,0.42953968,-0.47997278,-1.8495755,-8.614936,0.3645172,-0.42317516,0.0059919357,-0.02063889,-0.061384052,13.8548356,100.53344045,-22.97149658203125
1644885878896,136.92188,-177.70312,-86.296875,4.4812503,-43.4625,49.10625,1.5562878,-0.7901956,-0.6451798,-8.495226,-1.0726024,-0.7392098,0.0059919357,0.062449288,0.0014646954,13.8548356,100.53344045,-22.97149658203125
1644885879002,136.71875,-177.39062,-85.328125,5.5125003,-45.43125,49.687504,2.6187267,-0.8564856,-0.6908175,-9.156026,0.7140707,-1.127669,0.11145,0.16151595,-0.037948925,13.8548356,100.53344045,-22.97149658203125
1644885879105,136.48438,-177.17188,-85.421875,4.9500003,-45.112503,49.406254,-0.17973709,-1.0952212,-0.8265852,-11.168352,-0.18195933,-0.9983821,0.09014534,0.09014534,-0.016644266,13.8548356,100.53344045,-22.97149658203125
1644885879211,138.53125,-178.98438,-85.5,5.3812504,-44.287502,49.725002,-0.43216324,1.0063254,-0.82606983,-10.751761,0.7380127,-1.8650831,-0.03874785,-0.033421688,0.017443191,13.85477914,100.53344041,-22.74591064453125
1644885879312,138.42188,-178.875,-85.46875,4.6312504,-44.475002,49.406254,0.20028782,0.5569046,0.0069751516,-10.766127,0.374094,-2.0278888,0.037948925,-0.03555215,-0.008122402,13.85477914,100.53344041,-22.74591064453125
1644885879418,138.32812,-178.73438,-85.453125,5.15625,-44.2125,49.0125,0.050771713,-0.09744248,-1.4303354,-9.831789,0.56084174,-0.26036942,-0.0014646954,0.037948925,-0.009187635,13.85477914,100.53344041,-22.74591064453125
1644885879518,138.17188,-178.6875,-85.546875,5.34375,-43.875,48.675003,-0.4104004,-0.08219242,-1.1985743,-10.277111,0.85772276,-0.25558102,0.02197043,0.040079392,-0.008122402,13.85477914,100.53344041,-22.74591064453125
1644885879616,138.21875,-178.67188,-85.6875,5.5125003,-44.550003,49.050003,-0.2860489,0.54688,-0.99815065,-9.664195,0.919972,0.79367787,-0.054726347,0.0145138,0.0046603945,13.85477914,100.53344041,-22.74591064453125
1644885879727,138.01562,-178.5,-85.984375,6.0375004,-44.15625,49.10625,-0.013248444,-0.44183508,-0.11874835,-9.036316,0.8146271,1.1719618,0.027296597,0.015579033,-0.0038614697,13.85477914,100.53344041,-22.74591064453125
1644885879830,138.39062,-178.82812,-86.625,4.8,-44.79375,48.937504,0.13685608,-0.17927589,-0.572379,-9.179968,0.3453636,-1.1468226,0.02197043,-0.011051793,-6.657706E-4,13.85477914,100.53344041,-22.74591064453125
1644885879931,136.90625,-177.42188,-86.5,5.34375,-44.268753,49.312504,-0.32311535,-0.64372545,-0.65649056,-10.166978,0.091578215,-0.5907693,0.02516613,0.034753226,-0.007057169,13.85477914,100.53344041,-22.74591064453125
1644885880032,137.90625,-178.40625,-86.65625,5.8125,-44.025,50.250004,0.58156013,0.037074953,0.051679455,-9.007586,0.66618663,-0.15023616,0.015579033,-0.0025299285,-0.008122402,13.85477914,100.53344041,-22.74591064453125
1644885880138,137.98438,-178.46875,-86.546875,4.89375,-44.49375,49.050003,-0.057494164,0.27901226,0.1269027,-10.281899,0.54168814,-0.20290859,-0.029160755,-0.0067908606,-0.004926703,13.85477914,100.53344041,-22.74591064453125
1644885880242,137.89062,-178.45312,-86.640625,4.8375,-44.7,48.862503,0.96016884,0.34847033,1.3567897,-9.975441,0.6278794,-0.3417723,0.018774733,-3.9946238E-4,-0.0145138,13.85472195,100.53344137,-22.778778076171875
1644885880342,138.5,-179.03125,-87.65625,4.36875,-44.175003,49.18125,0.85827255,-0.13514686,1.5813868,-10.790069,-0.8283938,-1.4676456,0.009187635,-0.007856093,0.0035951615,13.85472195,100.53344137,-22.778778076171875
1644885880443,137.53125,-178.125,-88.0625,4.96875,-44.53125,48.393753,-0.62673664,0.12206274,-0.044970088,-10.622475,0.23044191,0.5446809,-0.044074018,0.018774733,-0.0038614697,13.85472195,100.53344137,-22.778778076171875
1644885880545,137.82812,-178.46875,-88.21875,5.3812504,-44.53125,49.818752,0.25218868,-0.24776727,0.38791576,-9.1033535,0.28790274,-0.044891283,0.019839965,-0.03555215,-0.0017310036,13.85472195,100.53344137,-22.778778076171875
1644885880655,138.1875,-178.85938,-88.796875,5.1375003,-45.112503,48.750004,-0.3068905,-0.38954863,0.5121522,-10.095152,0.034117375,1.2485762,-0.0067908606,0.013448567,-0.015579033,13.85472195,100.53344137,-22.778778076171875
1644885880744,137.51562,-1.78125,-88.203125,4.96875,-44.925003,48.862503,0.34219933,-0.07387912,0.4409162,-9.941922,-0.13826515,-0.47105917,-0.0025299285,0.040079392,0.014247492,13.85472195,100.53344137,-22.778778076171875
1644885880854,137.6875,-1.546875,-88.359375,5.7000003,-43.95,48.656254,0.07256222,-1.2593868,-0.91533405,-8.485649,-0.23942018,1.2629414,-0.03555215,0.030492295,0.022769356,13.85472195,100.53344137,-22.778778076171875
1644885880953,137.3125,-1.90625,-88.09375,6.2812505,-44.943752,49.331253,0.60466194,-0.33434877,0.6552401,-8.610147,0.024540568,0.59256494,-0.00998656,-0.04833495,0.014247492,13.85472195,100.53344137,-22.778778076171875
1644885881056,137.96875,-1.171875,-88.828125,5.0625,-45.0,48.600002,0.6303148,-0.77406925,1.1716014,-9.755175,-1.5568297,0.37708676,-0.039813083,0.0145138,0.012117025,13.85472195,100.53344137,-22.778778076171875
1644885881161,137.875,-1.234375,-88.734375,5.6625004,-44.71875,49.050003,0.7212095,-0.21202198,0.3134405,-9.1751795,0.7380127,-0.504578,0.062449288,0.02516613,-0.029427063,13.85472195,100.53344137,-22.778778076171875
1644885881268,137.0625,-1.984375,-87.65625,5.7937503,-45.037502,48.862503,-0.21426773,-0.1489156,0.19368428,-10.324995,0.943914,1.258153,0.02516613,0.063514516,-0.019839965,13.85466101,100.53343908,-22.675872802734375
1644885881371,137.59375,-1.40625,-87.609375,4.65,-44.025,48.487503,-0.15311337,0.37747467,0.56518865,-10.018537,1.246182,0.31004912,0.028361829,-0.007856093,0.0025299285,13.85466101,100.53343908,-22.675872802734375
1644885881471,137.64062,-1.265625,-87.90625,5.7000003,-44.362503,49.65,0.88109684,0.047459424,0.07984794,-9.625888,1.2078748,0.664391,0.02197043,0.054992653,-0.044340324,13.85466101,100.53343908,-22.675872802734375
1644885881574,137.32812,-1.578125,-87.921875,5.64375,-45.2625,48.562504,-0.015193939,0.07121462,0.80585945,-10.909779,0.38367084,0.8367735,-0.00998656,0.040079392,-0.0038614697,13.85466101,100.53343908,-22.675872802734375
1644885881687,137.01562,-1.8125,-87.078125,5.55,-44.737503,48.937504,-0.654192,0.7165015,0.71485585,-9.697714,1.5095441,1.751957,-0.028095521,-0.043008782,0.007856093,13.85466101,100.53343908,-22.675872802734375
1644885881768,137.375,-1.4375,-86.15625,5.0625,-44.1375,49.687504,0.39639664,-0.5535966,0.52303547,-8.112154,0.42197806,1.7375919,0.016644266,-0.023834588,-0.013448567,13.85466101,100.53343908,-22.675872802734375
1644885881885,137.15625,-1.59375,-85.5625,4.8,-43.631252,48.73125,0.080239296,-0.84026355,1.4150225,-10.359112,-0.090381116,0.5686229,0.05392742,0.0177095,-0.020905199,13.85466101,100.53343908,-22.675872802734375
1644885881984,136.60938,-2.109375,-84.234375,5.8125,-44.850002,48.975002,0.32763767,0.057682455,0.40546215,-10.742185,0.919972,0.4441244,0.034753226,0.064579755,-0.024100898,13.85466101,100.53343908,-22.675872802734375
1644885882087,136.90625,-1.71875,-83.3125,5.4750004,-45.09375,49.443752,-0.6179638,-0.37585443,0.3894801,-11.043854,0.44113165,1.5987282,0.0027962367,0.04540556,0.007856093,13.85466101,100.53343908,-22.675872802734375
1644885882190,136.625,-2.015625,-82.59375,5.55,-44.475002,48.393753,-0.6741257,-0.18243578,0.28510413,-10.421362,0.7667431,0.50637364,0.050731722,0.0038614697,-0.0017310036,13.8546072,100.53343966,-22.27960205078125
1644885882292,137.64062,-0.875,-82.6875,5.9812503,-44.8125,48.862503,-0.71894646,-0.2951032,-0.12560588,-9.788693,0.31663316,1.2150574,-0.029160755,0.03901416,0.0046603945,13.8546072,100.53343966,-22.27960205078125
1644885882397,136.8125,-1.71875,-82.375,5.775,-44.49375,48.15,-0.010564804,0.16476738,0.9460162,-9.184756,-0.13347675,1.4167689,-0.044074018,-0.02063889,0.024899822,13.8546072,100.53343966,-22.27960205078125
1644885882499,136.45312,-2.078125,-82.65625,5.4187503,-44.4375,49.331253,-0.65099907,0.21107012,0.4783983,-9.036316,1.1456255,1.6418238,0.0017310036,-0.024899822,0.025965055,13.8546072,100.53343966,-22.27960205078125
1644885882606,135.98438,-2.578125,-82.875,6.2625003,-44.8125,49.312504,-0.114995,-0.36598185,0.99918246,-9.5971575,0.31663316,2.144606,0.028361829,0.010252868,0.013182258,13.8546072,100.53343966,-22.27960205078125
1644885882713,136.48438,-2.0,-83.75,6.6000004,-44.737503,48.468754,-0.06524849,-0.052592903,0.042898983,-9.716867,0.6997054,1.1575965,0.033687994,0.020905199,-0.023035664,13.8546072,100.53343966,-22.27960205078125
1644885882807,136.5,-1.984375,-83.5,6.1125,-45.2625,49.312504,0.29512882,0.49866158,0.46016622,-9.563639,0.9056068,-0.020949265,0.04540556,-0.016377958,-6.657706E-4,13.8546072,100.53343966,-22.27960205078125
1644885882919,135.96875,-2.65625,-83.296875,5.71875,-44.0625,48.99375,0.29361343,0.17131305,1.0311726,-9.1512375,0.6039374,1.6418238,0.0177095,-0.011051793,0.017443191,13.8546072,100.53343966,-22.27960205078125
1644885883018,135.54688,-3.203125,-82.921875,6.2625003,-43.85625,49.800003,-0.27927208,-0.13669187,0.47349396,-10.075998,0.32142156,0.760159,0.03581846,-0.02063889,0.019573657,13.8546072,100.53343966,-22.27960205078125
1644885883124,134.85938,-4.125,-83.03125,5.53125,-43.987503,49.593754,0.27353477,0.19555026,-0.3891152,-9.2907,0.46986207,0.33399114,0.004926703,-3.9946238E-4,0.017443191,13.8546072,100.53343966,-22.27960205078125
1644885883225,136.3125,-2.734375,-84.40625,5.9812503,-43.6875,48.750004,0.57653904,0.5307823,0.14686966,-9.1751795,1.2174516,0.48722005,0.034753226,0.0038614697,-6.657706E-4,13.85457285,100.53343786,-22.2159423828125
1644885883327,136.21875,-2.953125,-84.984375,5.4375,-43.612503,48.881252,0.21522522,0.04807061,-0.6914701,-9.372103,0.53689975,-0.41838676,0.029427063,-0.007856093,-0.009187635,13.85457285,100.53343786,-22.2159423828125
1644885883429,136.23438,-3.171875,-85.875,5.3625,-44.006252,49.706253,-0.07802105,-0.10733858,-0.38568226,-10.329783,0.0053869537,-0.7727286,0.04540556,0.008122402,0.0046603945,13.85457285,100.53343786,-22.2159423828125
1644885883534,136.375,-3.203125,-85.859375,5.26875,-43.65,49.875004,-0.38139057,-0.13057709,-0.46448618,-9.415198,0.96306765,0.35793316,0.06031882,-0.03448692,0.017443191,13.85457285,100.53343786,-22.2159423828125
1644885883637,136.125,-3.703125,-86.0625,5.34375,-43.29375,49.893753,0.046290398,0.27445692,-0.70008695,-9.702502,0.4842273,-0.53330845,0.020905199,6.657706E-4,0.016377958,13.85457285,100.53343786,-22.2159423828125
1644885883740,137.10938,-177.09375,-87.03125,4.875,-43.256252,49.74375,-0.07771206,0.14204693,0.85631526,-10.229227,0.45070848,-0.4997896,0.069905914,-0.04194355,0.019573657,13.85457285,100.53343786,-22.2159423828125
1644885883840,137.03125,-176.75,-86.65625,5.1000004,-43.3125,49.912502,0.8373947,0.21353692,-1.5447896,-8.356362,0.9103952,-0.7727286,0.0177095,0.0145138,0.0014646954,13.85457285,100.53343786,-22.2159423828125
1644885883945,136.23438,-175.625,-85.53125,5.0437503,-43.18125,49.800003,0.4720087,-0.45987076,0.111285806,-9.67856,0.17298107,0.23822308,0.054992653,0.058188353,-0.0038614697,13.85457285,100.53343786,-22.2159423828125
1644885884056,136.53125,-175.65625,-85.609375,4.9500003,-42.675003,49.875004,-0.86760616,-0.6473089,-0.9617777,-9.894038,0.9684546,-0.9696517,0.12955897,-0.03448692,-0.029427063,13.85457285,100.53343786,-22.2159423828125
1644885884171,136.79688,-175.51562,-85.25,5.64375,-42.65625,49.818752,-0.565568,0.093164325,-0.81396866,-9.659407,0.83378077,1.1767502,0.0027962367,0.03581846,0.0035951615,13.85457285,100.53343786,-22.2159423828125
1644885884267,137.14062,-175.45312,-85.359375,4.8375,-41.68125,49.2,-0.8859167,-0.60836595,-0.33091217,-10.03769,0.7140707,0.050876785,0.08268871,-0.012117025,-0.0027962367,13.85454327,100.5334323,-22.22406005859375
1644885884366,138.45312,-176.45312,-86.3125,5.4375,-41.756252,49.331253,-0.0847311,-0.31661087,-0.112119265,-9.927557,0.2112883,-0.42796355,0.04540556,-3.9946238E-4,-0.0017310036,13.85454327,100.5334323,-22.22406005859375
1644885884464,138.75,-176.40625,-86.125,5.6062503,-42.54375,49.725002,0.30332756,-0.43106335,0.19061665,-9.712079,0.091578215,1.186327,-0.0067908606,0.05286219,0.0046603945,13.85454327,100.5334323,-22.22406005859375
1644885884567,139.8125,-177.21875,-87.078125,4.74375,-42.3375,49.331253,-0.051577568,-0.0647645,-0.44845864,-9.731233,1.8207904,-1.2808979,0.1529941,-0.011051793,-0.051796954,13.85454327,100.5334323,-22.22406005859375
1644885884673,140.89062,-178.0,-87.40625,4.9125004,-40.93125,48.80625,-0.89512444,0.72759783,-1.8516121,-10.334572,0.9295488,0.046088383,-0.05579158,0.04860126,0.0067908606,13.85454327,100.5334323,-22.22406005859375
1644885884774,141.23438,-178.1875,-86.5625,5.7000003,-42.09375,49.575,-0.21163273,-0.36568508,0.6632369,-10.238804,0.6374562,0.8798691,0.03155753,-0.0014646954,-0.0027962367,13.85454327,100.5334323,-22.22406005859375
1644885884878,140.23438,-177.03125,-85.765625,4.8,-40.425003,48.24375,0.24963474,0.33562708,-0.3827357,-9.822212,0.75237787,-1.4628572,-0.008921326,-0.033421688,-0.007057169,13.85454327,100.5334323,-22.22406005859375
1644885884985,140.28125,-177.01562,-85.9375,5.2125,-42.28125,48.881252,-0.14179707,-0.41124082,0.16458273,-9.879673,0.12509704,-0.58119243,-0.0035951615,-0.023834588,-0.013448567,13.85454327,100.5334323,-22.22406005859375
1644885885087,141.1875,-177.79688,-86.515625,5.7000003,-41.831253,49.068752,0.39596462,0.13921422,-1.9044507,-9.793482,0.3549404,-0.4950012,-0.08668334,0.07310162,-0.008122402,13.85454327,100.5334323,-22.22406005859375
1644885885186,141.82812,-178.375,-86.65625,5.3250003,-41.90625,49.65,-0.5568886,-0.37175685,-0.62669,-9.616311,0.39803603,0.30526072,-0.05685681,0.04647079,0.015312725,13.85450884,100.53342923,-22.55712890625
1644885885289,142.10938,-178.67188,-87.765625,5.45625,-41.86875,49.36875,0.034729958,-0.27859774,0.85911304,-10.478823,-0.02813187,-0.86849666,0.0038614697,-0.0025299285,-0.008122402,13.85450884,100.53342923,-22.55712890625
1644885885392,142.25,-178.92188,-87.75,5.1937504,-41.662502,48.412502,-0.3757229,-0.45167404,-0.4788552,-9.894038,0.46507367,-0.7104794,-0.0035951615,-0.013182258,-0.024100898,13.85450884,100.53342923,-22.55712890625
1644885885496,141.78125,-178.5,-87.96875,5.8125,-42.018753,49.443752,-0.15006065,-0.1826967,-0.6304155,-9.994595,0.42197806,-0.3417723,-0.03129122,0.04327509,-0.018774733,13.85450884,100.53342923,-22.55712890625
1644885885601,141.75,-178.60938,-88.53125,5.175,-41.0625,49.0125,-0.53139496,-0.42753524,-0.48643237,-10.19092,0.4938041,-0.1933318,-0.0035951615,0.024100898,0.00998656,13.85450884,100.53342923,-22.55712890625
1644885885703,141.4375,-178.48438,-88.03125,5.1375003,-41.625,49.3875,-0.045146942,-0.23653528,0.1994977,-10.085575,0.034117375,-0.825401,-0.028095521,-0.027030287,0.007856093,13.85450884,100.53342923,-22.55712890625
1644885885805,141.89062,-179.07812,-88.6875,5.3250003,-42.1875,49.425003,-0.0259552,0.16061804,0.09895968,-9.64983,0.5081693,-0.54767364,-0.032356452,-0.02063889,3.9946238E-4,13.85450884,100.53342923,-22.55712890625
1644885885908,141.96875,-179.375,-89.234375,6.1125,-41.925003,49.781254,-0.031172752,-0.31133467,0.29553664,-9.568427,0.30226797,0.736217,-0.03129122,0.009187635,-0.0017310036,13.85450884,100.53342923,-22.55712890625
1644885886016,141.64062,-179.21875,-88.890625,6.0375004,-42.300003,49.4625,6.685257E-4,-0.46391824,-0.1501323,-9.415198,0.08678981,-0.31783026,-0.021704122,-0.017443191,-0.023035664,13.85450884,100.53342923,-22.55712890625
1644885886117,140.5625,-178.35938,-88.328125,5.83125,-42.881252,49.36875,-0.3722515,-0.23585048,-0.2778638,-10.123882,0.24959552,-0.16938977,-0.0067908606,0.028361829,-0.019839965,13.85450884,100.53342923,-22.55712890625
1644885886216,140.1875,-1.78125,-88.046875,5.7375,-42.412502,49.36875,-0.24761009,0.11593656,0.1997012,-10.790069,0.12988544,-0.29867667,-0.021704122,0.032622762,-0.009187635,13.85447849,100.53342988,-23.276123046875
1644885886317,140.40625,-1.390625,-88.5,5.5125003,-42.28125,50.006252,-0.59598064,0.3242756,-0.4679004,-9.750386,0.15861586,-0.56682724,-0.0792267,-0.05259588,0.013182258,13.85447849,100.53342988,-23.276123046875
1644885886420,140.78125,-0.78125,-89.09375,5.4,-42.862503,49.275,0.4025507,-0.14645347,-0.78304374,-8.801684,-0.004189853,-0.6290765,-0.04940018,-0.0025299285,0.014247492,13.85447849,100.53342988,-23.276123046875
1644885886524,140.8125,-0.5625,-89.140625,5.1000004,-43.65,49.725002,0.89170265,-0.3229438,-0.13516997,-8.911818,-0.2681506,1.009156,-0.061117746,0.036883693,-6.657706E-4,13.85447849,100.53342988,-23.276123046875
1644885886628,139.84375,-1.265625,-88.453125,5.4375,-43.987503,49.48125,-0.40467262,-0.40534753,0.30352557,-10.324995,0.110731825,-0.08319851,0.0027962367,-0.0035951615,-0.015579033,13.85447849,100.53342988,-23.276123046875
1644885886732,140.35938,-0.515625,-88.90625,6.4500003,-44.775,49.593754,-1.2570152,0.19557455,-0.59062696,-10.205285,0.45070848,-1.2808979,-0.029160755,-0.11331416,0.012117025,13.85447849,100.53342988,-23.276123046875
1644885886841,140.4375,-0.21875,-89.46875,4.8562503,-43.350002,49.575,0.3843403,-0.39603,-1.5009787,-8.260594,-0.018555064,0.51116204,-0.1015966,0.03581846,0.025965055,13.85447849,100.53342988,-23.276123046875
1644885886928,139.64062,-0.71875,-89.28125,5.11875,-43.10625,49.518753,0.120604515,0.8869143,-0.009314805,-9.20391,0.2112883,0.16101007,-0.12609696,-0.04513925,0.05259588,13.85447849,100.53342988,-23.276123046875
1644885887043,139.20312,-0.9375,-88.9375,5.30625,-43.55625,49.725002,0.038521767,-0.7820027,0.21900995,-10.574591,-0.2633622,0.49679685,0.0145138,0.06031882,-0.023035664,13.85447849,100.53342988,-23.276123046875
1644885887151,138.85938,-179.07812,-89.015625,5.30625,-43.893753,49.74375,-0.07043171,0.765168,0.7551862,-9.980229,1.0929531,-0.7823054,0.0038614697,-0.062182978,0.0067908606,13.85447849,100.53342988,-23.276123046875
1644885887250,138.1875,-178.6875,-88.609375,4.65,-44.49375,49.893753,0.10491657,0.6832979,-1.0098406,-8.959702,0.85772276,-0.86849666,-0.05366111,-0.014247492,0.012117025,13.85445164,100.53343189,-23.10211181640625
1644885887353,137.96875,-178.70312,-88.578125,5.1375003,-44.850002,49.74375,0.63481236,0.082446724,-0.39319837,-9.266758,0.40282443,0.6691794,-0.03555215,0.054992653,-0.020905199,13.85445164,100.53343189,-23.10211181640625
1644885887451,137.03125,-177.98438,-87.828125,4.93125,-45.35625,49.406254,-0.3431816,-0.45509,0.4921801,-10.708666,-0.15801731,0.91817635,-0.013182258,0.07097115,-0.030492295,13.85445164,100.53343189,-23.10211181640625
1644885887556,136.42188,-177.45312,-87.4375,5.2312503,-45.15,49.29375,-0.4420166,-0.16233468,-0.56242734,-9.405622,0.7332243,-0.18854338,0.0059919357,-0.015312725,0.0014646954,13.85445164,100.53343189,-23.10211181640625
1644885887663,136.10938,-177.32812,-87.109375,4.9500003,-45.018753,49.725002,-0.051602364,0.28190213,-1.032295,-9.223063,0.65182143,-0.7870938,-0.019573657,-0.0046603945,0.016377958,13.85445164,100.53343189,-23.10211181640625
1644885887768,137.1875,-178.53125,-88.375,5.34375,-45.037502,50.025,0.013632774,-0.15267372,-0.19413999,-10.4883995,0.12509704,-0.01616086,0.0017310036,0.03155753,-0.0145138,13.85445164,100.53343189,-23.10211181640625
1644885887870,138.09375,-179.51562,-89.234375,5.68125,-45.225002,49.612503,-0.061182022,-0.4214213,0.020369643,-10.042479,-0.13347675,0.0700304,-0.030225987,-0.00998656,-0.012383334,13.85445164,100.53343189,-23.10211181640625
1644885887969,137.09375,-178.73438,-88.234375,5.45625,-45.825,49.725002,0.008446693,-0.19151437,-0.10454988,-8.801684,0.56563014,0.21428105,-0.0046603945,-0.04833495,0.022769356,13.85445164,100.53343189,-23.10211181640625
1644885888076,136.29688,-178.03125,-87.5625,6.4125004,-47.0625,50.49375,0.570508,0.37997305,0.043209456,-9.884461,0.18255788,-0.9935937,-0.017443191,0.02516613,0.011051793,13.85445164,100.53343189,-23.10211181640625
1644885888181,137.03125,-178.90625,-88.59375,5.3625,-47.006252,50.1375,0.20046139,-0.05367036,-1.0721976,-9.807847,0.670975,-0.74399817,-0.013182258,0.019839965,-0.020905199,13.85442914,100.53343166,-23.6070556640625
1644885888281,137.09375,-179.09375,-88.640625,5.2875004,-46.818752,49.48125,-0.105724335,-0.27698642,-1.003855,-9.870096,0.14903906,-0.76315176,-0.019573657,0.044340324,0.0035951615,13.85442914,100.53343166,-23.6070556640625
1644885888384,136.10938,-178.28125,-87.28125,4.8187504,-46.125,49.331253,0.21900272,0.07512137,-0.48508996,-9.975441,0.3693056,-1.5011644,-0.021704122,0.010252868,-0.0017310036,13.85442914,100.53343166,-23.6070556640625
1644885888485,135.28125,-177.65625,-86.640625,6.05625,-46.162502,49.612503,-0.031155586,0.12536463,-0.88246614,-9.908403,0.18734628,-1.271321,-0.05366111,0.02516613,-0.007057169,13.85442914,100.53343166,-23.6070556640625
1644885888588,135.70312,-178.17188,-85.046875,5.4375,-46.518753,49.781254,0.43287277,-0.082329035,0.20539725,-9.233239,0.670975,-0.6961141,6.657706E-4,0.0177095,-0.010252868,13.85442914,100.53343166,-23.6070556640625
1644885888692,135.5,-178.15625,-84.8125,5.53125,-46.95,49.518753,-0.053453445,-0.16166963,-0.18768793,-9.697714,0.670975,0.065242,-0.017443191,0.02197043,-0.024100898,13.85442914,100.53343166,-23.6070556640625
1644885888805,135.09375,-177.96875,-84.0625,5.15625,-47.49375,49.818752,-0.0022039413,0.21184859,0.73880255,-10.368689,-0.16759412,-0.8062474,-0.039813083,-0.019573657,3.9946238E-4,13.85442914,100.53343166,-23.6070556640625
1644885888912,135.32812,-178.3125,-84.21875,4.6875,-47.8125,49.500004,-0.14800835,0.0725005,-0.25915897,-9.736021,0.38367084,-0.58119243,-0.04513925,-0.0014646954,0.0035951615,13.85442914,100.53343166,-23.6070556640625
1644885889005,135.0,-178.21875,-85.421875,5.1375003,-47.71875,49.575,-0.036561012,0.14665785,0.47935352,-10.023325,0.6901286,-0.035314474,-0.017443191,0.0027962367,-0.011318101,13.85442914,100.53343166,-23.6070556640625
1644885889113,135.45312,-178.76562,-86.203125,5.0437503,-47.081253,49.256252,0.1691761,0.7282231,0.70404506,-9.601946,0.5129577,-0.3657143,-0.06644391,0.0038614697,0.03555215,13.85442914,100.53343166,-23.6070556640625
1644885889217,135.17188,-178.70312,-86.625,5.625,-47.081253,50.062504,0.27185917,0.24245507,0.22066659,-9.5253315,0.24480712,-0.8158242,-0.04620448,-0.012117025,0.0057256273,13.85440419,100.53343294,-23.18499755859375
1644885889315,135.03125,-178.6875,-87.578125,5.71875,-46.18125,49.2,-0.22011757,0.21391985,0.9738498,-10.387842,0.10594343,-0.38965634,-0.024899822,-0.04513925,0.024899822,13.85440419,100.53343294,-23.18499755859375
1644885889414,133.85938,-177.75,-86.921875,5.1000004,-47.0625,50.175003,0.17958069,0.3976796,0.68703306,-10.07121,0.3453636,0.21428105,-0.039813083,-0.014247492,0.008921326,13.85440419,100.53343294,-23.18499755859375
1644885889518,134.01562,-178.0,-87.140625,5.5875,-48.037502,49.537502,-0.19738102,-0.36358508,-0.050007567,-9.1512375,0.52253455,0.82240826,-0.03129122,-0.043008782,-0.0027962367,13.85440419,100.53343294,-23.18499755859375
1644885889623,133.71875,-177.85938,-87.703125,6.0750003,-47.925003,49.0875,0.083592415,-0.09263775,-0.09488702,-9.606734,0.14425065,-0.11192893,-0.025965055,0.008122402,-0.010252868,13.85440419,100.53343294,-23.18499755859375
1644885889726,133.5625,-177.8125,-87.8125,5.26875,-47.68125,49.406254,0.1390295,0.17931506,0.4655111,-9.697714,0.55605334,-0.030526072,-0.0035951615,-0.021704122,0.013182258,13.85440419,100.53343294,-23.18499755859375
1644885889834,132.89062,-2.75,-87.25,6.0375004,-47.60625,49.312504,-0.60484314,0.15642223,-0.1586718,-10.152613,0.65660983,-0.08319851,-0.0067908606,-0.011051793,0.013182258,13.85440419,100.53343294,-23.18499755859375
1644885889940,133.40625,-2.125,-87.734375,5.3250003,-47.9625,49.518753,-0.037047386,0.1323922,0.56404895,-9.491813,0.42197806,0.51116204,-0.007856093,-0.03555215,0.0046603945,13.85440419,100.53343294,-23.18499755859375
1644885890036,134.20312,-1.296875,-88.6875,6.1312504,-47.8875,49.36875,0.025027275,0.2442976,-0.17500292,-9.807847,0.42676646,-0.2220622,-0.017443191,-0.007856093,0.013182258,13.85440419,100.53343294,-23.18499755859375
1644885890143,133.3125,-2.140625,-87.796875,6.3562503,-48.2625,49.425003,-0.13445091,-0.08536187,0.22653466,-10.013748,-0.0664391,-0.7248446,0.0017310036,-0.019573657,0.0046603945,13.85440419,100.53343294,-23.18499755859375
1644885890244,132.79688,-2.609375,-87.296875,5.775,-47.943752,48.750004,-0.3496666,-0.197636,0.494091,-9.5732155,0.38367084,0.93732995,-0.0057256273,-0.027030287,-0.0017310036,13.85438073,100.53343554,-22.659271240234375
1644885890346,132.98438,-2.40625,-87.5625,6.4125004,-48.956253,48.3375,-0.27564144,-0.044033468,-0.30179328,-10.104729,0.11552023,-0.6721721,-0.0046603945,-0.0014646954,-0.0027962367,13.85438073,100.53343554,-22.659271240234375
1644885890447,133.67188,-1.6875,-88.25,6.4500003,-48.562504,49.781254,-0.037555695,0.22904766,0.3447846,-10.075998,0.3453636,0.51116204,-0.015312725,0.0177095,0.0014646954,13.85438073,100.53343554,-22.659271240234375
1644885890555,133.10938,-2.1875,-87.796875,5.4187503,-47.737503,49.443752,0.57541466,0.22163662,-0.7940938,-9.208698,0.7858967,-0.27473465,-0.00998656,0.016644266,-0.027296597,13.85438073,100.53343554,-22.659271240234375
1644885890655,133.29688,-1.984375,-87.859375,6.1125,-47.475002,48.600002,-0.28013897,-0.15862434,-0.037813254,-10.09994,0.24480712,0.439336,-0.0057256273,0.027296597,0.0014646954,13.85438073,100.53343554,-22.659271240234375
1644885890757,133.20312,-2.0625,-87.765625,6.3187504,-47.475002,49.29375,-0.4710598,-0.067774534,0.1499073,-9.688137,0.7811083,0.760159,0.015579033,-0.039813083,0.0057256273,13.85438073,100.53343554,-22.659271240234375
1644885890865,132.45312,-2.8125,-87.109375,5.68125,-48.24375,49.18125,0.6703243,0.17013887,-0.012799203,-9.621099,0.12509704,-0.19812019,-0.030225987,0.02516613,0.007856093,13.85438073,100.53343554,-22.659271240234375
1644885890969,133.25,-2.015625,-87.71875,5.9812503,-48.24375,48.54375,0.05827999,-0.21041988,1.044624,-10.296265,0.3453636,1.3257892,0.023035664,0.0177095,-0.010252868,13.85438073,100.53343554,-22.659271240234375
1644885891070,133.5625,-1.6875,-87.84375,6.2250004,-48.318752,47.362503,-0.9123125,0.13665667,0.5367368,-10.684724,0.96306765,1.1288661,0.04327509,0.0059919357,-0.030492295,13.85438073,100.53343554,-22.659271240234375
1644885891173,133.07812,-2.1875,-87.296875,6.4875,-48.393753,48.45,-1.0923767,0.7990521,-0.06842139,-10.143036,0.973243,0.34835634,-0.051530648,-0.0952052,0.03448692,13.85438073,100.53343554,-22.659271240234375
1644885891275,133.0625,-2.234375,-86.296875,5.6062503,-48.075,48.675003,0.45201302,0.35049525,-0.3054884,-8.839992,0.2112883,0.59735334,-0.0792267,-0.021704122,0.033421688,13.85436024,100.5334372,-22.541839599609375
1644885891378,133.46875,-1.8125,-86.046875,5.7937503,-47.71875,48.187504,0.49753952,-0.53370726,0.38602507,-10.133459,-0.521936,1.0857705,-0.0067908606,0.078427784,-0.012383334,13.85436024,100.5334372,-22.541839599609375
1644885891487,132.85938,-2.421875,-85.6875,6.0750003,-47.8875,48.15,-0.858469,0.21036604,0.97506464,-10.895413,0.7044938,0.35314476,0.032622762,-0.057922047,-0.008122402,13.85436024,100.5334372,-22.541839599609375
1644885891586,133.07812,-2.234375,-85.296875,5.6625004,-47.006252,47.925003,-1.6556988,0.36460778,0.35735375,-10.99597,0.86251116,0.439336,6.657706E-4,-0.06963961,0.032356452,13.85436024,100.5334372,-22.541839599609375
1644885891686,133.73438,-1.5,-85.296875,5.64375,-47.325,48.562504,-1.0091667,0.93063825,-0.31187436,-9.88925,1.0594343,0.046088383,-0.05579158,-0.1015966,0.054726347,13.85436024,100.5334372,-22.541839599609375
1644885891791,133.375,-1.875,-85.765625,5.0625,-47.381252,48.768753,0.19978523,0.026361346,-0.37551403,-8.5383215,-0.109534726,0.79367787,-0.04940018,-0.016377958,0.03129122,13.85436024,100.5334372,-22.541839599609375
1644885891900,133.39062,-1.90625,-85.34375,4.8,-46.143753,47.943752,0.7940445,-0.66784644,-0.38028246,-9.458294,-0.18195933,0.7505822,-0.0035951615,0.09227581,-0.026231363,13.85436024,100.5334372,-22.541839599609375
1644885892001,133.53125,-1.703125,-85.890625,4.78125,-46.6875,48.43125,-0.22687817,-0.7440471,0.85241807,-10.579379,0.038905777,0.8702923,0.061384052,0.010252868,-0.02197043,13.85436024,100.5334372,-22.541839599609375
1644885892111,133.0625,-2.234375,-85.375,6.5062504,-47.41875,48.562504,-0.049461365,0.42772776,-0.5556768,-8.959702,0.27832595,-0.17417817,-0.04833495,-0.036617383,0.028095521,13.85436024,100.5334372,-22.541839599609375
1644885892208,133.23438,-2.03125,-86.171875,5.5687504,-47.4,47.90625,1.3562326,-0.012894094,-1.2244217,-7.920019,-0.14784196,-0.4997896,-0.06431344,-0.007856093,0.024899822,13.8543497,100.53343567,-22.656768798828125
1644885892314,133.01562,-2.265625,-86.609375,5.5687504,-47.475002,48.24375,1.4312525,-1.2640147,0.005197376,-8.792108,-0.81881696,1.1575965,0.019839965,0.11038477,-0.02516613,13.8543497,100.53343567,-22.656768798828125
1644885892413,133.07812,-2.21875,-86.453125,5.2125,-47.381252,48.600002,1.2918272,-1.3396554,0.3439587,-9.578004,-0.5554548,0.6452374,0.09227581,0.1274285,-0.058188353,13.8543497,100.53343567,-22.656768798828125
1644885892515,133.375,-1.90625,-87.96875,5.25,-47.34375,48.843754,-0.7992449,-0.4328726,-0.012313098,-10.919355,1.198298,0.81283146,0.10186291,0.04220986,-0.06031882,13.8543497,100.53343567,-22.656768798828125
1644885892616,132.89062,-2.359375,-87.546875,6.15,-46.818752,48.281254,-1.1303959,0.48489043,-0.11425486,-11.177929,1.5526398,-0.84455466,0.037948925,-0.051530648,3.9946238E-4,13.8543497,100.53343567,-22.656768798828125
1644885892718,133.73438,-1.59375,-88.296875,6.4687505,-46.800003,48.112503,-0.74381924,1.0487484,-0.94316053,-9.487024,1.2318168,-0.39923313,-0.061117746,-0.07283531,0.03874785,13.8543497,100.53343567,-22.656768798828125
1644885892826,132.57812,-177.34375,-87.34375,6.6375003,-47.175003,48.43125,0.8431606,-0.4906178,-0.30555326,-9.213487,-0.51714754,0.2717419,-0.024899822,0.04220986,0.0057256273,13.8543497,100.53343567,-22.656768798828125
1644885892934,133.17188,-2.140625,-87.859375,5.925,-47.362503,49.48125,-0.49495888,-0.3360135,-0.0027630925,-10.622475,-0.037708677,-0.073621705,0.06031882,0.04540556,-0.03155753,13.8543497,100.53343567,-22.656768798828125
1644885893035,133.29688,-178.03125,-88.0,5.7375,-48.037502,48.750004,-0.74392605,0.5076847,-0.35114413,-9.989806,0.997185,-0.5955577,0.007057169,-0.07070484,0.0067908606,13.8543497,100.53343567,-22.656768798828125
1644885893144,132.79688,-177.53125,-87.453125,6.1312504,-47.9625,48.675003,0.9825926,0.0092493,-0.7533769,-9.132084,-0.2777274,-0.3752911,-0.03555215,0.054992653,0.0057256273,13.8543497,100.53343567,-22.656768798828125
1644885893243,133.40625,-178.10938,-88.078125,5.8125,-47.11875,48.45,0.65940666,-0.5237439,-0.15821612,-10.195708,-0.23942018,0.15143326,0.019839965,0.07523208,-0.024100898,13.8543497,100.53343567,-22.656768798828125
1644885893342,133.3125,-178.04688,-87.921875,5.1375003,-47.550003,48.787502,-0.35028648,-0.34396067,0.3307608,-10.694301,0.7140707,0.46806642,0.052729033,0.0074566314,-0.025698747,13.8543497,100.53343567,-22.656768798828125
1644885893444,132.8125,-177.57812,-87.484375,5.1937504,-47.30625,47.71875,-0.8321924,0.5615155,-0.39855528,-10.109517,1.0546459,-0.4902128,0.0029293909,-0.075631544,0.01291595,13.8543497,100.53343567,-22.656768798828125
1644885893547,133.21875,-177.92188,-87.875,5.8875003,-47.943752,48.6375,0.5939188,0.3457926,-0.93588257,-8.897452,0.5033809,-0.54767364,-0.056723658,-0.026497671,0.020505736,13.8543497,100.53343567,-22.656768798828125
1644885893649,133.39062,-178.125,-88.03125,6.0750003,-47.831253,48.581253,1.138237,-0.49628526,-0.35738036,-9.074623,-0.49799395,0.7457938,-0.013848029,0.09533835,-0.007057169,13.8543497,100.53343567,-22.656768798828125
1644885893754,132.84375,-177.60938,-87.421875,5.0062504,-47.625,48.6375,0.86364746,-1.0659751,0.97821635,-10.195708,0.048482586,1.5987282,0.08322133,0.09653674,-0.057256274,13.8543497,100.53343567,-22.656768798828125
1644885893858,133.10938,-177.82812,-87.8125,5.5687504,-46.875,48.45,-1.5164661,0.455357,0.51708543,-11.868058,1.4856021,-0.049679685,0.07469947,-0.021437814,-0.030891757,13.8543497,100.53343567,-22.656768798828125
1644885893963,133.48438,-1.765625,-88.0625,5.25,-47.53125,48.018753,-2.0135546,1.5157391,-0.48096785,-10.842741,1.6484078,-0.9744401,-0.058587816,-0.13328728,0.05392742,13.8543497,100.53343567,-22.656768798828125
1644885894073,132.84375,-2.421875,-87.34375,5.8875003,-48.6375,49.331253,0.9624109,-0.39438823,-1.5501181,-7.6710224,-0.770933,-0.092775315,-0.113979936,-0.027829213,0.056989968,13.8543497,100.53343567,-22.656768798828125
1644885894161,133.84375,-1.4375,-87.609375,5.4,-47.625,48.787502,-0.21873379,1.1878304,-1.269083,-9.443929,0.5895722,-1.2808979,-0.1225018,-0.07682993,0.06551183,13.8543497,100.53343567,-22.656768798828125
1644885894276,132.54688,-2.671875,-87.203125,5.53125,-47.04375,48.54375,0.1656456,-0.19225326,0.08910121,-9.707291,0.31184477,-0.3657143,0.03195699,-0.02676398,-0.013315413,13.8543497,100.53343567,-22.656768798828125
1644885894376,133.29688,-2.03125,-87.953125,4.78125,-47.41875,49.2,0.38785458,-0.04239112,-0.97282547,-9.1272955,0.25438392,-0.41838676,-0.023435127,0.007323477,0.0058587817,13.8543497,100.53343567,-22.656768798828125
1644885894477,133.14062,-2.078125,-87.90625,5.2125,-46.95,47.943752,-0.13426399,-0.2664889,-0.100279704,-9.846154,0.29747957,-0.08798691,0.024500359,-0.0054593193,0.0026630824,13.8543497,100.53343567,-22.656768798828125
1644885894581,133.0625,-177.79688,-87.5625,5.6625004,-47.775,48.9,0.47400475,0.110593826,-0.715399,-9.343372,0.30226797,-0.5859809,-0.023435127,-1.3315413E-4,5.326165E-4,13.8543497,100.53343567,-22.656768798828125
1644885894681,133.04688,-177.79688,-87.046875,5.2125,-47.662502,49.406254,0.08308792,-0.36890614,-0.32323822,-9.606734,0.28790274,0.24301147,0.018108962,0.01904104,-0.0058587817,13.8543497,100.53343567,-22.656768798828125
1644885894788,133.1875,-177.92188,-87.203125,5.08125,-48.393753,49.65,0.124676704,0.0059506,-0.57362115,-9.606734,0.39324763,-0.39444473,-0.005326165,0.006258244,-0.010119714,13.8543497,100.53343567,-22.656768798828125
1644885894887,133.07812,-177.79688,-87.09375,5.6625004,-47.2125,48.843754,-0.06580067,-0.24721357,0.052351065,-10.00896,0.17298107,-0.207697,0.018108962,0.013714875,5.326165E-4,13.8543497,100.53343567,-22.656768798828125
1644885894988,133.125,-177.85938,-86.9375,5.53125,-47.100002,48.61875,-0.177742,0.097465664,0.15203807,-9.692925,0.75716627,-0.47105917,0.019174194,-0.038481545,-5.326165E-4,13.8543497,100.53343567,-22.656768798828125
1644885895091,133.125,-177.85938,-87.125,5.68125,-47.475002,48.037502,-0.052796364,-0.2991563,0.49625385,-9.865308,0.4794389,0.0077811554,0.038348388,-0.013981183,-0.0047935485,13.8543497,100.53343567,-22.656768798828125
1644885895196,133.14062,-177.875,-86.96875,5.34375,-47.2125,48.506252,0.3205309,0.06751314,-0.29953954,-9.683349,0.27353755,-0.22685061,-0.03195699,0.02969337,-0.0026630824,13.85433903,100.53343597,-24.484283447265625
1644885895295,133.17188,-177.90625,-87.078125,5.5125003,-47.34375,48.281254,-0.51659966,-0.31454125,1.1011403,-10.047267,0.46507367,-0.26036942,0.083088174,-0.029959679,0.010119714,13.85433903,100.53343597,-24.484283447265625
